####### Preamble ##########################
#	byt_nr=1
#	bit_nr=8
#	encdg=BIN
#	bn_fmt=RI
#	byt_or=MSB
#	nr_pt=10000
#	wfid="Ch1, DC coupling, 5.0E0 V/div, 1.0E0 s/div, 10000 points, Sample mode"
#	pt_fmt=Y
#	xincr=1.0E-3
#	pt_off=0
#	xzero=-5.0E0
#	xunit="s"
#	ymult=2.0E-1
#	yzero=0.0E0
#	yoff=5.7E1
#	yunit="V"
#######  Cursor ##########################
#VBA;IND;"s";-3.68E0;-4.02E0;4.0E0;3.4E-1;CURSOR1;1.6E0;-2.4E0;8.8E0;-8.0E0;1.68E1;CURSOR1;"V";CURSOR1;CURSOR1X;-3.24E1;-2.08E1;9.6E0;4.32E1;RECT;0.0E0;0.0E0;0.0E0;0.0E0;0.0E0;0.0E0;9.9E37;9.9E37;9.9E37;9.9E37;9.9E37;9.9E37;9.9E37;9.9E37;9.9E37;9.9E37;9.9E37;9.9E37
#######  Data ##########################
#RIB;REF1;CH1;1;10000;1
# Delete the above lines to open in excel ######

Time [s],volts [V]
0.0,64.0
0.001,67.6
0.002,66.8
0.003,66.6
0.004,66.6
0.005,66.6
0.006,66.6
0.007,67.4
0.008,67.4
0.009000000000000001,67.4
0.01,67.4
0.011,67.4
0.012,67.6
0.013000000000000001,67.4
0.014,67.2
0.015,67.6
0.016,67.6
0.017,67.4
0.018000000000000002,67.4
0.019,67.6
0.02,67.6
0.021,67.6
0.022,67.8
0.023,67.6
0.024,67.6
0.025,67.6
0.026000000000000002,67.6
0.027,67.8
0.028,67.6
0.029,67.8
0.03,67.6
0.031,67.6
0.032,67.8
0.033,67.6
0.034,67.8
0.035,67.8
0.036000000000000004,67.8
0.037,67.6
0.038,67.6
0.039,67.8
0.04,67.8
0.041,67.6
0.042,67.8
0.043000000000000003,67.8
0.044,67.8
0.045,68.0
0.046,68.0
0.047,68.0
0.048,68.0
0.049,67.8
0.05,68.0
0.051000000000000004,67.8
0.052000000000000005,68.2
0.053,68.0
0.054,68.0
0.055,68.0
0.056,67.8
0.057,68.0
0.058,68.0
0.059000000000000004,68.0
0.06,68.0
0.061,68.2
0.062,68.0
0.063,68.2
0.064,68.0
0.065,68.0
0.066,68.0
0.067,68.2
0.068,68.2
0.069,68.2
0.07,68.2
0.07100000000000001,68.2
0.07200000000000001,68.2
0.073,68.2
0.074,68.2
0.075,68.2
0.076,68.2
0.077,68.2
0.078,68.2
0.079,68.4
0.08,68.4
0.081,68.4
0.082,68.4
0.083,68.2
0.084,68.2
0.085,68.4
0.08600000000000001,68.6
0.08700000000000001,68.6
0.088,68.6
0.089,68.4
0.09,68.4
0.091,68.4
0.092,68.6
0.093,68.2
0.094,68.4
0.095,68.4
0.096,68.4
0.097,68.6
0.098,68.6
0.099,68.6
0.1,68.6
0.101,68.4
0.10200000000000001,68.6
0.10300000000000001,68.8
0.10400000000000001,68.6
0.105,68.8
0.106,68.6
0.107,68.8
0.108,68.8
0.109,68.8
0.11,68.8
0.111,68.6
0.112,68.6
0.113,68.8
0.114,68.8
0.115,68.6
0.116,68.8
0.117,68.8
0.11800000000000001,68.8
0.11900000000000001,68.8
0.12,68.8
0.121,69.0
0.122,69.0
0.123,68.8
0.124,69.2
0.125,69.0
0.126,68.8
0.127,69.0
0.128,69.0
0.129,69.0
0.13,68.8
0.131,68.8
0.132,69.0
0.133,69.2
0.134,69.2
0.135,69.0
0.136,69.0
0.137,69.2
0.138,69.2
0.139,69.4
0.14,69.0
0.14100000000000001,69.2
0.14200000000000002,69.0
0.14300000000000002,69.0
0.14400000000000002,69.0
0.145,69.2
0.146,69.4
0.147,69.2
0.148,69.2
0.149,69.0
0.15,69.2
0.151,69.0
0.152,69.2
0.153,69.2
0.154,69.4
0.155,69.4
0.156,69.2
0.157,69.4
0.158,69.6
0.159,69.2
0.16,69.4
0.161,69.4
0.162,69.4
0.163,69.4
0.164,69.6
0.165,69.6
0.166,69.4
0.167,69.4
0.168,69.4
0.169,69.6
0.17,69.6
0.171,69.6
0.17200000000000001,69.6
0.17300000000000001,69.6
0.17400000000000002,69.6
0.17500000000000002,69.6
0.176,69.6
0.177,69.8
0.178,69.8
0.179,69.8
0.18,69.8
0.181,69.8
0.182,69.6
0.183,69.8
0.184,69.6
0.185,69.8
0.186,69.8
0.187,69.8
0.188,69.8
0.189,69.6
0.19,69.8
0.191,69.8
0.192,69.8
0.193,70.0
0.194,70.0
0.195,69.6
0.196,70.0
0.197,70.0
0.198,69.8
0.199,70.0
0.2,70.0
0.201,69.8
0.202,69.8
0.203,70.0
0.20400000000000001,70.2
0.20500000000000002,70.0
0.20600000000000002,70.2
0.20700000000000002,70.0
0.20800000000000002,70.0
0.209,70.4
0.21,70.2
0.211,70.0
0.212,70.2
0.213,70.2
0.214,70.4
0.215,70.2
0.216,70.0
0.217,70.0
0.218,70.2
0.219,70.2
0.22,70.2
0.221,70.4
0.222,70.4
0.223,70.4
0.224,70.2
0.225,70.4
0.226,70.4
0.227,70.4
0.228,70.4
0.229,70.2
0.23,70.2
0.231,70.2
0.232,70.6
0.233,70.4
0.234,70.2
0.23500000000000001,70.2
0.23600000000000002,70.4
0.23700000000000002,70.4
0.23800000000000002,70.6
0.23900000000000002,70.6
0.24,70.4
0.241,70.4
0.242,70.4
0.243,70.6
0.244,70.6
0.245,70.4
0.246,70.2
0.247,70.6
0.248,70.6
0.249,70.6
0.25,70.8
0.251,70.4
0.252,70.6
0.253,70.6
0.254,70.4
0.255,70.4
0.256,70.8
0.257,70.6
0.258,70.8
0.259,70.6
0.26,70.6
0.261,70.8
0.262,70.8
0.263,70.8
0.264,70.8
0.265,70.8
0.266,70.8
0.267,70.8
0.268,71.0
0.269,70.6
0.27,70.8
0.271,70.8
0.272,70.8
0.273,70.8
0.274,70.6
0.275,71.0
0.276,70.8
0.277,71.0
0.278,71.0
0.279,71.0
0.28,71.0
0.281,70.8
0.28200000000000003,71.0
0.28300000000000003,70.8
0.28400000000000003,71.0
0.28500000000000003,71.0
0.28600000000000003,71.0
0.28700000000000003,71.0
0.28800000000000003,70.8
0.289,71.0
0.29,71.0
0.291,70.8
0.292,71.0
0.293,71.0
0.294,70.8
0.295,71.2
0.296,71.0
0.297,71.0
0.298,71.0
0.299,71.2
0.3,71.0
0.301,71.0
0.302,71.0
0.303,71.2
0.304,70.8
0.305,71.2
0.306,71.2
0.307,71.0
0.308,71.2
0.309,71.4
0.31,71.2
0.311,71.2
0.312,71.2
0.313,71.2
0.314,71.4
0.315,71.0
0.316,71.2
0.317,71.2
0.318,71.6
0.319,71.2
0.32,71.2
0.321,71.4
0.322,71.4
0.323,71.0
0.324,71.4
0.325,71.4
0.326,71.6
0.327,71.4
0.328,71.2
0.329,71.2
0.33,71.2
0.331,71.4
0.332,71.6
0.333,71.2
0.334,71.4
0.335,71.6
0.336,71.6
0.337,71.6
0.338,71.4
0.339,71.4
0.34,71.4
0.341,71.4
0.342,71.6
0.343,71.6
0.34400000000000003,71.6
0.34500000000000003,71.4
0.34600000000000003,71.6
0.34700000000000003,71.6
0.34800000000000003,71.6
0.34900000000000003,71.6
0.35000000000000003,71.4
0.35100000000000003,71.6
0.352,71.4
0.353,71.6
0.354,71.4
0.355,71.8
0.356,71.6
0.357,71.6
0.358,71.6
0.359,71.4
0.36,71.6
0.361,71.8
0.362,71.8
0.363,71.8
0.364,71.6
0.365,71.8
0.366,71.6
0.367,71.8
0.368,71.6
0.369,71.6
0.37,72.0
0.371,71.6
0.372,71.8
0.373,71.6
0.374,71.6
0.375,71.8
0.376,72.0
0.377,71.8
0.378,72.0
0.379,72.0
0.38,71.6
0.381,72.0
0.382,71.8
0.383,72.0
0.384,72.0
0.385,72.0
0.386,71.8
0.387,72.0
0.388,72.0
0.389,71.8
0.39,71.8
0.391,72.0
0.392,71.8
0.393,71.8
0.394,72.0
0.395,72.0
0.396,71.8
0.397,72.0
0.398,72.2
0.399,71.8
0.4,72.0
0.401,71.8
0.402,72.0
0.403,72.0
0.404,72.0
0.405,72.0
0.406,72.0
0.40700000000000003,72.2
0.40800000000000003,72.4
0.40900000000000003,72.0
0.41000000000000003,72.2
0.41100000000000003,72.2
0.41200000000000003,72.0
0.41300000000000003,72.2
0.41400000000000003,72.0
0.41500000000000004,72.2
0.41600000000000004,72.2
0.417,72.2
0.418,72.0
0.419,72.0
0.42,72.2
0.421,72.2
0.422,72.2
0.423,72.2
0.424,72.0
0.425,72.4
0.426,72.2
0.427,72.2
0.428,72.0
0.429,72.2
0.43,72.2
0.431,72.2
0.432,72.0
0.433,72.2
0.434,72.2
0.435,72.2
0.436,72.2
0.437,72.0
0.438,72.2
0.439,72.2
0.44,72.2
0.441,72.4
0.442,72.4
0.443,72.4
0.444,72.2
0.445,72.2
0.446,72.4
0.447,72.4
0.448,72.4
0.449,72.2
0.45,72.6
0.451,72.2
0.452,72.4
0.453,72.4
0.454,72.4
0.455,72.4
0.456,72.6
0.457,72.4
0.458,72.4
0.459,72.2
0.46,72.6
0.461,72.4
0.462,72.6
0.463,72.2
0.464,72.4
0.465,72.4
0.466,72.4
0.467,72.4
0.468,72.4
0.46900000000000003,72.6
0.47000000000000003,72.2
0.47100000000000003,72.4
0.47200000000000003,72.4
0.47300000000000003,72.6
0.47400000000000003,72.4
0.47500000000000003,72.6
0.47600000000000003,72.6
0.47700000000000004,72.6
0.47800000000000004,72.6
0.47900000000000004,72.4
0.48,72.6
0.481,72.4
0.482,72.8
0.483,72.6
0.484,72.8
0.485,72.4
0.486,72.4
0.487,72.6
0.488,72.6
0.489,72.6
0.49,72.6
0.491,72.6
0.492,72.6
0.493,72.6
0.494,72.8
0.495,72.6
0.496,72.8
0.497,72.8
0.498,72.4
0.499,72.6
0.5,72.8
0.501,72.8
0.502,72.6
0.503,72.6
0.504,72.6
0.505,72.6
0.506,72.8
0.507,72.8
0.508,72.8
0.509,72.6
0.51,72.6
0.511,72.8
0.512,73.0
0.513,72.6
0.514,72.8
0.515,72.8
0.516,72.8
0.517,72.8
0.518,72.8
0.519,72.8
0.52,72.8
0.521,72.8
0.522,72.8
0.523,72.8
0.524,72.8
0.525,72.6
0.526,72.6
0.527,72.6
0.528,72.8
0.529,73.0
0.53,73.0
0.531,72.6
0.532,72.8
0.533,72.8
0.534,72.8
0.535,72.8
0.536,72.6
0.537,72.8
0.538,72.6
0.539,72.8
0.54,73.0
0.541,73.0
0.542,72.8
0.543,73.0
0.544,72.8
0.545,72.8
0.546,73.0
0.547,72.8
0.548,72.8
0.549,72.8
0.55,73.0
0.551,72.8
0.552,73.0
0.553,72.8
0.554,73.0
0.555,72.8
0.556,72.8
0.557,72.8
0.558,72.8
0.559,72.8
0.56,73.0
0.561,72.8
0.562,73.0
0.5630000000000001,73.0
0.5640000000000001,72.8
0.5650000000000001,72.8
0.5660000000000001,72.8
0.5670000000000001,72.8
0.5680000000000001,73.0
0.5690000000000001,72.8
0.5700000000000001,72.8
0.5710000000000001,72.8
0.5720000000000001,73.0
0.5730000000000001,73.0
0.5740000000000001,73.0
0.5750000000000001,73.0
0.5760000000000001,73.0
0.577,73.0
0.578,72.8
0.579,73.0
0.58,72.8
0.581,73.0
0.582,73.0
0.583,73.0
0.584,73.0
0.585,72.8
0.586,73.0
0.587,72.8
0.588,72.6
0.589,73.0
0.59,73.0
0.591,73.2
0.592,72.8
0.593,73.0
0.594,73.0
0.595,73.0
0.596,73.0
0.597,73.0
0.598,72.8
0.599,73.0
0.6,73.0
0.601,72.8
0.602,73.0
0.603,73.0
0.604,73.0
0.605,73.2
0.606,73.2
0.607,73.0
0.608,73.2
0.609,73.2
0.61,73.0
0.611,73.4
0.612,73.0
0.613,73.2
0.614,73.0
0.615,73.2
0.616,73.0
0.617,73.0
0.618,73.0
0.619,73.0
0.62,72.8
0.621,73.2
0.622,73.0
0.623,73.0
0.624,73.0
0.625,73.0
0.626,73.0
0.627,72.8
0.628,73.2
0.629,73.2
0.63,72.8
0.631,72.8
0.632,73.0
0.633,73.0
0.634,73.2
0.635,73.0
0.636,73.0
0.637,73.0
0.638,73.0
0.639,73.0
0.64,73.2
0.641,73.0
0.642,73.0
0.643,73.0
0.644,73.2
0.645,73.0
0.646,73.2
0.647,72.8
0.648,73.2
0.649,73.0
0.65,73.0
0.651,73.0
0.652,73.2
0.653,73.2
0.654,73.0
0.655,72.8
0.656,72.8
0.657,73.0
0.658,73.2
0.659,73.0
0.66,73.0
0.661,72.8
0.662,73.0
0.663,73.0
0.664,72.8
0.665,73.0
0.666,72.8
0.667,73.2
0.668,73.0
0.669,73.0
0.67,73.0
0.671,73.0
0.672,73.0
0.673,72.8
0.674,73.0
0.675,73.0
0.676,73.0
0.677,72.8
0.678,73.0
0.679,73.2
0.68,73.2
0.681,73.2
0.682,73.0
0.683,72.8
0.684,73.0
0.685,73.0
0.686,73.0
0.687,72.8
0.6880000000000001,73.0
0.6890000000000001,72.8
0.6900000000000001,72.8
0.6910000000000001,72.8
0.6920000000000001,73.0
0.6930000000000001,73.0
0.6940000000000001,73.0
0.6950000000000001,73.2
0.6960000000000001,72.8
0.6970000000000001,72.8
0.6980000000000001,72.8
0.6990000000000001,73.0
0.7000000000000001,72.8
0.7010000000000001,73.0
0.7020000000000001,73.0
0.7030000000000001,73.0
0.704,72.8
0.705,73.0
0.706,72.8
0.707,73.0
0.708,72.8
0.709,73.0
0.71,72.8
0.711,72.8
0.712,72.8
0.713,73.0
0.714,72.8
0.715,73.0
0.716,73.0
0.717,73.0
0.718,73.0
0.719,72.8
0.72,72.8
0.721,73.0
0.722,72.8
0.723,73.0
0.724,72.8
0.725,72.6
0.726,72.6
0.727,73.0
0.728,72.8
0.729,72.8
0.73,72.8
0.731,73.0
0.732,73.0
0.733,72.6
0.734,72.8
0.735,72.8
0.736,72.8
0.737,72.8
0.738,72.8
0.739,73.0
0.74,72.8
0.741,72.8
0.742,72.8
0.743,73.0
0.744,72.6
0.745,72.8
0.746,72.8
0.747,72.8
0.748,72.8
0.749,72.8
0.75,72.6
0.751,72.8
0.752,72.8
0.753,72.8
0.754,72.6
0.755,72.6
0.756,72.6
0.757,72.6
0.758,72.6
0.759,72.8
0.76,72.6
0.761,72.6
0.762,72.6
0.763,72.8
0.764,72.6
0.765,72.6
0.766,72.6
0.767,72.8
0.768,72.6
0.769,72.4
0.77,72.6
0.771,72.6
0.772,72.8
0.773,72.6
0.774,72.6
0.775,72.6
0.776,72.4
0.777,72.8
0.778,72.6
0.779,72.6
0.78,72.4
0.781,72.6
0.782,72.4
0.783,72.6
0.784,72.8
0.785,72.6
0.786,72.4
0.787,72.6
0.788,72.4
0.789,72.6
0.79,72.6
0.791,72.6
0.792,72.4
0.793,72.6
0.794,72.6
0.795,72.4
0.796,72.4
0.797,72.6
0.798,72.6
0.799,72.6
0.8,72.4
0.801,72.4
0.802,72.4
0.803,72.6
0.804,72.6
0.805,72.6
0.806,72.4
0.807,72.4
0.808,72.6
0.809,72.6
0.81,72.4
0.811,72.4
0.812,72.4
0.8130000000000001,72.6
0.8140000000000001,72.2
0.8150000000000001,72.6
0.8160000000000001,72.4
0.8170000000000001,72.6
0.8180000000000001,72.2
0.8190000000000001,72.6
0.8200000000000001,72.6
0.8210000000000001,72.6
0.8220000000000001,72.4
0.8230000000000001,72.2
0.8240000000000001,72.4
0.8250000000000001,72.2
0.8260000000000001,72.4
0.8270000000000001,72.4
0.8280000000000001,72.4
0.8290000000000001,72.4
0.8300000000000001,72.4
0.8310000000000001,72.4
0.8320000000000001,72.4
0.833,72.0
0.834,72.2
0.835,72.2
0.836,72.2
0.837,72.2
0.838,72.2
0.839,72.2
0.84,72.2
0.841,72.4
0.842,72.4
0.843,72.2
0.844,72.2
0.845,72.0
0.846,72.2
0.847,72.2
0.848,72.2
0.849,72.0
0.85,72.2
0.851,72.2
0.852,72.2
0.853,72.0
0.854,72.0
0.855,72.0
0.856,72.2
0.857,72.2
0.858,72.2
0.859,72.0
0.86,72.0
0.861,72.2
0.862,72.2
0.863,72.0
0.864,72.0
0.865,72.0
0.866,72.0
0.867,72.0
0.868,71.8
0.869,72.4
0.87,72.0
0.871,72.0
0.872,72.0
0.873,72.2
0.874,72.2
0.875,71.8
0.876,72.0
0.877,72.0
0.878,72.0
0.879,72.0
0.88,72.0
0.881,71.8
0.882,72.0
0.883,72.0
0.884,71.8
0.885,71.8
0.886,72.0
0.887,72.0
0.888,71.8
0.889,72.0
0.89,72.0
0.891,71.8
0.892,72.0
0.893,72.0
0.894,71.8
0.895,71.8
0.896,71.8
0.897,72.0
0.898,71.6
0.899,72.0
0.9,72.0
0.901,71.8
0.902,72.0
0.903,71.8
0.904,71.8
0.905,72.0
0.906,72.0
0.907,71.8
0.908,71.6
0.909,71.8
0.91,71.6
0.911,71.8
0.912,71.8
0.913,71.8
0.914,71.6
0.915,71.6
0.916,71.8
0.917,71.4
0.918,71.8
0.919,71.6
0.92,71.6
0.921,71.6
0.922,71.6
0.923,71.6
0.924,71.4
0.925,71.6
0.926,71.6
0.927,71.4
0.928,71.4
0.929,71.4
0.93,71.6
0.931,71.6
0.932,71.4
0.933,71.6
0.934,71.4
0.935,71.4
0.936,71.6
0.937,71.6
0.9380000000000001,71.6
0.9390000000000001,71.4
0.9400000000000001,71.6
0.9410000000000001,71.6
0.9420000000000001,71.6
0.9430000000000001,71.6
0.9440000000000001,71.2
0.9450000000000001,71.4
0.9460000000000001,71.2
0.9470000000000001,71.2
0.9480000000000001,71.4
0.9490000000000001,71.4
0.9500000000000001,71.4
0.9510000000000001,71.4
0.9520000000000001,71.2
0.9530000000000001,71.2
0.9540000000000001,71.2
0.9550000000000001,71.2
0.9560000000000001,71.4
0.9570000000000001,71.4
0.9580000000000001,71.0
0.9590000000000001,71.2
0.96,71.4
0.961,71.2
0.962,71.2
0.963,71.0
0.964,71.2
0.965,71.0
0.966,71.2
0.967,71.0
0.968,71.2
0.969,71.0
0.97,71.2
0.971,71.2
0.972,71.0
0.973,71.2
0.974,71.0
0.975,71.0
0.976,71.0
0.977,71.2
0.978,71.2
0.979,71.0
0.98,70.8
0.981,71.0
0.982,71.2
0.983,71.0
0.984,71.0
0.985,71.0
0.986,71.0
0.987,71.0
0.988,71.0
0.989,71.0
0.99,70.8
0.991,71.0
0.992,71.0
0.993,70.8
0.994,70.8
0.995,70.8
0.996,71.0
0.997,70.8
0.998,70.8
0.999,70.8
1.0,70.6
1.0010000000000001,71.0
1.002,71.0
1.0030000000000001,70.8
1.004,70.8
1.0050000000000001,70.8
1.006,71.0
1.0070000000000001,70.6
1.008,70.6
1.0090000000000001,70.8
1.01,70.6
1.0110000000000001,70.8
1.012,70.6
1.0130000000000001,70.8
1.014,70.6
1.0150000000000001,70.8
1.016,70.6
1.0170000000000001,70.8
1.018,70.6
1.0190000000000001,70.6
1.02,70.6
1.0210000000000001,70.6
1.022,70.4
1.0230000000000001,70.4
1.024,70.6
1.025,70.6
1.026,70.4
1.027,70.6
1.028,70.4
1.029,70.6
1.03,70.6
1.031,70.2
1.032,70.6
1.033,70.4
1.034,70.4
1.035,70.4
1.036,70.4
1.037,70.4
1.038,70.4
1.039,70.4
1.04,70.4
1.041,70.6
1.042,70.4
1.043,70.2
1.044,70.4
1.045,70.2
1.046,70.2
1.047,70.2
1.048,70.4
1.049,70.4
1.05,70.4
1.051,70.2
1.052,70.2
1.053,70.2
1.054,70.0
1.055,70.4
1.056,70.2
1.057,70.0
1.058,70.2
1.059,70.2
1.06,70.2
1.061,70.2
1.062,70.0
1.063,70.2
1.064,70.0
1.065,70.0
1.066,70.0
1.067,70.0
1.068,70.0
1.069,70.0
1.07,70.0
1.071,70.2
1.072,70.0
1.073,69.8
1.074,70.0
1.075,69.8
1.076,69.8
1.077,70.0
1.078,70.0
1.079,69.6
1.08,70.0
1.081,70.0
1.082,69.8
1.083,69.8
1.084,69.8
1.085,69.6
1.086,69.8
1.087,69.6
1.088,69.8
1.089,69.6
1.09,69.6
1.091,69.8
1.092,69.6
1.093,69.6
1.094,69.6
1.095,69.8
1.096,69.6
1.097,69.6
1.098,69.8
1.099,69.6
1.1,69.6
1.101,69.6
1.102,69.4
1.103,69.6
1.104,69.4
1.105,69.6
1.106,69.6
1.107,69.2
1.108,69.6
1.109,69.2
1.11,69.4
1.111,69.2
1.112,69.6
1.113,69.2
1.114,69.4
1.115,69.4
1.116,69.2
1.117,69.4
1.118,69.4
1.119,69.2
1.12,69.2
1.121,69.4
1.122,69.0
1.123,69.2
1.124,69.2
1.125,69.2
1.1260000000000001,69.4
1.127,69.2
1.1280000000000001,69.2
1.129,69.2
1.1300000000000001,69.2
1.131,69.2
1.1320000000000001,69.0
1.133,69.0
1.1340000000000001,69.2
1.135,69.0
1.1360000000000001,69.2
1.137,69.0
1.1380000000000001,69.0
1.139,69.0
1.1400000000000001,69.0
1.141,69.0
1.1420000000000001,69.0
1.143,69.0
1.1440000000000001,68.8
1.145,69.0
1.1460000000000001,68.8
1.147,69.0
1.1480000000000001,68.8
1.149,68.8
1.1500000000000001,68.8
1.151,68.8
1.1520000000000001,68.8
1.153,68.8
1.154,69.0
1.155,68.8
1.156,68.8
1.157,68.8
1.158,69.0
1.159,68.6
1.16,68.6
1.161,68.8
1.162,68.8
1.163,68.6
1.164,68.8
1.165,68.8
1.166,68.6
1.167,68.6
1.168,68.6
1.169,68.6
1.17,68.8
1.171,68.8
1.172,68.4
1.173,68.6
1.174,68.6
1.175,68.6
1.176,68.4
1.177,68.4
1.178,68.6
1.179,68.4
1.18,68.6
1.181,68.6
1.182,68.4
1.183,68.4
1.184,68.2
1.185,68.4
1.186,68.4
1.187,68.4
1.188,68.2
1.189,68.4
1.19,68.4
1.191,68.4
1.192,68.2
1.193,68.2
1.194,68.4
1.195,68.2
1.196,68.4
1.197,68.4
1.198,68.2
1.199,68.2
1.2,68.4
1.201,68.2
1.202,68.2
1.203,68.2
1.204,68.0
1.205,68.2
1.206,68.2
1.207,68.0
1.208,67.8
1.209,68.0
1.21,68.2
1.211,67.8
1.212,68.0
1.213,68.2
1.214,68.2
1.215,68.0
1.216,68.0
1.217,68.0
1.218,68.2
1.219,68.0
1.22,67.8
1.221,67.8
1.222,67.8
1.223,68.0
1.224,67.8
1.225,68.0
1.226,67.8
1.227,68.0
1.228,68.0
1.229,67.8
1.23,67.8
1.231,67.8
1.232,67.8
1.233,67.8
1.234,67.8
1.235,67.6
1.236,67.6
1.237,67.6
1.238,67.6
1.239,67.6
1.24,67.6
1.241,67.6
1.242,67.8
1.243,67.6
1.244,67.6
1.245,67.8
1.246,67.6
1.247,67.6
1.248,67.8
1.249,67.4
1.25,67.6
1.2510000000000001,67.6
1.252,67.8
1.2530000000000001,67.6
1.254,67.4
1.2550000000000001,67.6
1.256,67.4
1.2570000000000001,67.6
1.258,67.4
1.2590000000000001,67.4
1.26,67.4
1.2610000000000001,67.4
1.262,67.4
1.2630000000000001,67.4
1.264,67.4
1.2650000000000001,67.6
1.266,67.2
1.2670000000000001,67.4
1.268,67.4
1.2690000000000001,67.4
1.27,67.4
1.2710000000000001,67.2
1.272,67.4
1.2730000000000001,67.2
1.274,67.2
1.2750000000000001,67.2
1.276,67.2
1.2770000000000001,67.2
1.278,67.0
1.2790000000000001,67.2
1.28,67.2
1.281,67.2
1.282,67.2
1.283,67.2
1.284,67.2
1.285,67.2
1.286,67.2
1.287,66.8
1.288,67.0
1.289,67.0
1.29,67.0
1.291,67.0
1.292,67.0
1.293,67.0
1.294,67.0
1.295,66.8
1.296,67.2
1.297,66.8
1.298,66.8
1.299,66.8
1.3,66.8
1.301,67.0
1.302,66.8
1.303,66.8
1.304,66.8
1.305,66.6
1.306,66.8
1.307,66.8
1.308,66.8
1.309,66.8
1.31,66.8
1.311,67.0
1.312,66.8
1.313,66.8
1.314,66.6
1.315,66.8
1.316,66.8
1.317,66.8
1.318,66.6
1.319,66.8
1.32,66.6
1.321,66.6
1.322,66.8
1.323,66.6
1.324,66.6
1.325,66.6
1.326,66.6
1.327,66.6
1.328,66.6
1.329,66.4
1.33,66.4
1.331,66.4
1.332,66.4
1.333,66.4
1.334,66.4
1.335,66.4
1.336,66.4
1.337,66.4
1.338,66.4
1.339,66.4
1.34,66.2
1.341,66.4
1.342,66.2
1.343,66.2
1.344,66.4
1.345,66.4
1.346,66.4
1.347,66.4
1.348,66.2
1.349,66.4
1.35,66.2
1.351,66.2
1.352,66.2
1.353,66.4
1.354,66.0
1.355,66.2
1.356,66.0
1.357,66.2
1.358,66.2
1.359,66.2
1.36,66.2
1.361,66.2
1.362,66.2
1.363,66.0
1.364,66.2
1.365,66.2
1.366,66.0
1.367,66.2
1.368,66.2
1.369,66.2
1.37,65.8
1.371,66.2
1.372,65.8
1.373,65.8
1.374,66.0
1.375,66.0
1.3760000000000001,65.8
1.377,65.8
1.3780000000000001,66.0
1.379,65.8
1.3800000000000001,66.0
1.381,66.0
1.3820000000000001,65.8
1.383,66.0
1.3840000000000001,65.8
1.385,66.0
1.3860000000000001,65.8
1.387,65.8
1.3880000000000001,66.0
1.389,65.6
1.3900000000000001,65.6
1.391,65.6
1.3920000000000001,65.8
1.393,65.8
1.3940000000000001,65.8
1.395,66.0
1.3960000000000001,65.6
1.397,65.8
1.3980000000000001,66.0
1.399,65.8
1.4000000000000001,65.8
1.401,65.6
1.4020000000000001,65.8
1.403,65.8
1.4040000000000001,65.6
1.405,65.8
1.4060000000000001,65.4
1.407,65.6
1.408,65.4
1.409,65.6
1.41,65.6
1.411,65.8
1.412,65.4
1.413,65.8
1.414,65.6
1.415,65.4
1.416,65.6
1.417,65.6
1.418,65.4
1.419,65.4
1.42,65.6
1.421,65.6
1.422,65.2
1.423,65.4
1.424,65.4
1.425,65.4
1.426,65.4
1.427,65.2
1.428,65.2
1.429,65.4
1.43,65.2
1.431,65.4
1.432,65.4
1.433,65.4
1.434,65.4
1.435,65.4
1.436,65.2
1.437,65.6
1.438,65.4
1.439,65.2
1.44,65.2
1.441,65.2
1.442,65.2
1.443,65.2
1.444,65.4
1.445,65.2
1.446,65.4
1.447,64.8
1.448,65.0
1.449,65.2
1.45,65.2
1.451,65.4
1.452,65.2
1.453,64.8
1.454,65.2
1.455,65.2
1.456,65.2
1.457,65.0
1.458,65.0
1.459,65.0
1.46,65.2
1.461,64.8
1.462,65.0
1.463,65.2
1.464,65.2
1.465,65.0
1.466,65.2
1.467,65.2
1.468,64.8
1.469,64.8
1.47,65.0
1.471,65.0
1.472,65.0
1.473,64.8
1.474,65.0
1.475,65.0
1.476,65.0
1.477,65.0
1.478,64.8
1.479,64.8
1.48,65.2
1.481,64.8
1.482,64.8
1.483,65.0
1.484,64.8
1.485,64.6
1.486,64.8
1.487,65.0
1.488,64.8
1.489,64.8
1.49,64.8
1.491,65.0
1.492,64.6
1.493,65.0
1.494,65.0
1.495,64.6
1.496,65.0
1.497,64.8
1.498,64.6
1.499,64.8
1.5,64.8
1.5010000000000001,64.8
1.502,64.8
1.5030000000000001,64.6
1.504,64.8
1.5050000000000001,64.8
1.506,64.8
1.5070000000000001,64.8
1.508,64.8
1.5090000000000001,64.8
1.51,64.8
1.5110000000000001,64.6
1.512,64.6
1.5130000000000001,64.8
1.514,64.6
1.5150000000000001,64.8
1.516,64.8
1.5170000000000001,64.6
1.518,64.6
1.5190000000000001,64.8
1.52,64.8
1.5210000000000001,64.6
1.522,64.6
1.5230000000000001,64.8
1.524,64.6
1.5250000000000001,64.6
1.526,64.6
1.5270000000000001,64.6
1.528,64.4
1.5290000000000001,64.6
1.53,64.6
1.5310000000000001,64.8
1.532,64.8
1.5330000000000001,64.6
1.534,64.6
1.5350000000000001,64.6
1.536,64.6
1.537,64.6
1.538,64.4
1.539,64.6
1.54,64.6
1.541,64.4
1.542,64.4
1.543,64.6
1.544,64.6
1.545,64.6
1.546,64.4
1.547,64.4
1.548,64.4
1.549,64.4
1.55,64.6
1.551,64.6
1.552,64.4
1.553,64.4
1.554,64.4
1.555,64.6
1.556,64.4
1.557,64.4
1.558,64.6
1.559,64.6
1.56,64.4
1.561,64.2
1.562,64.4
1.563,64.2
1.564,64.4
1.565,64.4
1.566,64.4
1.567,64.4
1.568,64.2
1.569,64.4
1.57,64.2
1.571,64.4
1.572,64.2
1.573,64.2
1.574,64.2
1.575,64.2
1.576,64.4
1.577,64.2
1.578,64.2
1.579,64.4
1.58,64.0
1.581,64.2
1.582,64.4
1.583,64.4
1.584,64.4
1.585,64.4
1.586,64.4
1.587,64.2
1.588,64.2
1.589,64.2
1.59,64.4
1.591,64.2
1.592,64.4
1.593,64.2
1.594,64.0
1.595,64.2
1.596,64.2
1.597,64.4
1.598,64.2
1.599,64.2
1.6,64.4
1.601,64.2
1.602,64.0
1.603,64.2
1.604,64.2
1.605,64.2
1.606,64.2
1.607,64.2
1.608,64.2
1.609,64.4
1.61,64.0
1.611,64.2
1.612,64.4
1.613,64.2
1.614,64.2
1.615,64.2
1.616,63.8
1.617,64.0
1.618,64.2
1.619,64.4
1.62,64.0
1.621,64.0
1.622,64.2
1.623,64.2
1.624,64.2
1.625,64.0
1.6260000000000001,64.0
1.627,64.0
1.6280000000000001,64.0
1.629,64.2
1.6300000000000001,64.2
1.631,64.2
1.6320000000000001,64.2
1.633,64.2
1.6340000000000001,64.2
1.635,64.2
1.6360000000000001,64.0
1.637,64.0
1.6380000000000001,64.0
1.639,64.0
1.6400000000000001,64.0
1.641,64.0
1.6420000000000001,64.2
1.643,64.0
1.6440000000000001,64.0
1.645,64.0
1.6460000000000001,64.0
1.647,64.0
1.6480000000000001,64.0
1.649,64.0
1.6500000000000001,64.0
1.651,64.0
1.6520000000000001,64.0
1.653,64.0
1.6540000000000001,64.0
1.655,63.8
1.6560000000000001,64.0
1.657,64.2
1.6580000000000001,63.8
1.659,64.0
1.6600000000000001,64.0
1.661,64.0
1.6620000000000001,64.0
1.663,64.2
1.6640000000000001,63.8
1.665,64.0
1.666,63.8
1.667,64.0
1.668,64.0
1.669,64.0
1.67,63.8
1.671,64.0
1.672,64.2
1.673,63.8
1.674,63.8
1.675,63.8
1.676,63.8
1.677,63.8
1.678,64.0
1.679,64.0
1.68,63.8
1.681,64.2
1.682,64.0
1.683,64.0
1.684,64.0
1.685,64.0
1.686,63.8
1.687,63.8
1.688,63.8
1.689,64.0
1.69,63.8
1.691,64.0
1.692,64.2
1.693,63.8
1.694,64.0
1.695,63.8
1.696,63.8
1.697,64.0
1.698,64.0
1.699,63.8
1.7,63.8
1.701,63.8
1.702,63.8
1.703,64.0
1.704,64.0
1.705,63.8
1.706,64.0
1.707,64.0
1.708,63.8
1.709,63.8
1.71,63.8
1.711,64.0
1.712,64.0
1.713,64.0
1.714,63.8
1.715,63.8
1.716,63.8
1.717,64.0
1.718,64.0
1.719,63.8
1.72,63.6
1.721,63.8
1.722,63.8
1.723,64.0
1.724,63.6
1.725,63.6
1.726,63.8
1.727,63.8
1.728,63.8
1.729,64.0
1.73,63.8
1.731,63.6
1.732,63.8
1.733,64.0
1.734,63.8
1.735,64.0
1.736,63.6
1.737,64.0
1.738,63.6
1.739,63.8
1.74,63.8
1.741,63.8
1.742,63.8
1.743,64.0
1.744,63.6
1.745,63.8
1.746,63.8
1.747,63.8
1.748,64.0
1.749,64.2
1.75,63.6
1.7510000000000001,63.8
1.752,63.6
1.7530000000000001,63.8
1.754,63.8
1.7550000000000001,63.8
1.756,63.8
1.7570000000000001,63.8
1.758,63.8
1.7590000000000001,63.6
1.76,63.6
1.7610000000000001,63.8
1.762,63.8
1.7630000000000001,63.8
1.764,64.2
1.7650000000000001,63.8
1.766,63.6
1.7670000000000001,63.8
1.768,63.6
1.7690000000000001,64.0
1.77,63.6
1.7710000000000001,63.8
1.772,63.6
1.7730000000000001,63.6
1.774,63.8
1.7750000000000001,63.8
1.776,63.8
1.7770000000000001,63.8
1.778,63.6
1.7790000000000001,63.6
1.78,63.8
1.7810000000000001,63.8
1.782,63.6
1.7830000000000001,64.0
1.784,63.8
1.7850000000000001,63.6
1.786,63.8
1.7870000000000001,63.8
1.788,63.8
1.7890000000000001,63.8
1.79,63.8
1.7910000000000001,64.0
1.792,63.6
1.793,63.8
1.794,63.8
1.795,63.6
1.796,63.8
1.797,63.8
1.798,63.8
1.799,63.8
1.8,63.4
1.801,63.8
1.802,63.6
1.803,64.0
1.804,63.6
1.805,63.8
1.806,63.8
1.807,63.8
1.808,63.8
1.809,64.0
1.81,63.8
1.811,64.0
1.812,64.0
1.813,63.8
1.814,63.6
1.815,63.6
1.816,63.8
1.817,63.8
1.818,63.6
1.819,63.8
1.82,63.8
1.821,63.8
1.822,64.0
1.823,63.6
1.824,63.8
1.825,63.8
1.826,63.8
1.827,63.8
1.828,64.0
1.829,63.8
1.83,63.6
1.831,64.0
1.832,64.0
1.833,64.0
1.834,64.2
1.835,63.8
1.836,64.0
1.837,63.8
1.838,64.0
1.839,63.8
1.84,64.0
1.841,64.0
1.842,63.8
1.843,63.6
1.844,63.8
1.845,64.0
1.846,64.0
1.847,64.0
1.848,64.2
1.849,63.8
1.85,63.8
1.851,63.8
1.852,64.0
1.853,63.8
1.854,64.0
1.855,64.0
1.856,64.0
1.857,63.8
1.858,63.6
1.859,64.2
1.86,63.8
1.861,63.8
1.862,64.0
1.863,64.2
1.864,63.8
1.865,63.8
1.866,64.2
1.867,63.8
1.868,63.8
1.869,64.0
1.87,64.0
1.871,63.8
1.872,63.8
1.873,64.2
1.874,63.8
1.875,63.8
1.8760000000000001,64.0
1.877,63.8
1.8780000000000001,63.8
1.879,64.2
1.8800000000000001,64.0
1.881,64.0
1.8820000000000001,64.2
1.883,64.2
1.8840000000000001,64.0
1.885,63.8
1.8860000000000001,63.8
1.887,64.2
1.8880000000000001,63.8
1.889,64.2
1.8900000000000001,64.0
1.891,64.2
1.8920000000000001,64.0
1.893,64.2
1.8940000000000001,64.0
1.895,64.0
1.8960000000000001,64.2
1.897,64.0
1.8980000000000001,64.2
1.899,64.0
1.9000000000000001,64.2
1.901,64.0
1.9020000000000001,64.0
1.903,64.0
1.9040000000000001,64.2
1.905,64.2
1.9060000000000001,64.2
1.907,64.0
1.9080000000000001,64.2
1.909,64.2
1.9100000000000001,64.2
1.911,64.2
1.9120000000000001,64.0
1.913,64.0
1.9140000000000001,64.0
1.915,64.2
1.9160000000000001,64.2
1.917,64.0
1.9180000000000001,64.2
1.919,64.0
1.92,64.2
1.921,64.2
1.922,64.0
1.923,64.0
1.924,64.0
1.925,64.0
1.926,64.2
1.927,64.2
1.928,64.2
1.929,64.2
1.93,64.2
1.931,64.2
1.932,64.2
1.933,64.2
1.934,64.0
1.935,64.2
1.936,64.0
1.937,64.2
1.938,64.0
1.939,64.2
1.94,64.4
1.941,64.2
1.942,64.2
1.943,64.2
1.944,64.2
1.945,64.4
1.946,64.2
1.947,64.2
1.948,64.0
1.949,64.2
1.95,64.0
1.951,64.2
1.952,64.2
1.953,64.0
1.954,64.2
1.955,64.0
1.956,64.2
1.957,64.2
1.958,64.4
1.959,64.4
1.96,64.2
1.961,64.4
1.962,64.4
1.963,64.4
1.964,64.0
1.965,64.2
1.966,64.2
1.967,64.4
1.968,64.4
1.969,64.4
1.97,64.2
1.971,64.2
1.972,64.6
1.973,64.4
1.974,64.2
1.975,64.4
1.976,64.4
1.977,64.2
1.978,64.4
1.979,64.2
1.98,64.4
1.981,64.4
1.982,64.2
1.983,64.4
1.984,64.2
1.985,64.4
1.986,64.6
1.987,64.2
1.988,64.4
1.989,64.4
1.99,64.4
1.991,64.4
1.992,64.6
1.993,64.4
1.994,64.4
1.995,64.6
1.996,64.4
1.997,64.4
1.998,64.4
1.999,64.6
2.0,64.4
2.001,64.6
2.0020000000000002,64.4
2.003,64.6
2.004,64.6
2.005,64.4
2.0060000000000002,64.4
2.007,64.6
2.008,64.4
2.009,64.6
2.0100000000000002,64.6
2.011,64.8
2.012,64.6
2.013,64.4
2.0140000000000002,64.6
2.015,64.6
2.016,64.6
2.017,64.4
2.0180000000000002,64.6
2.019,64.6
2.02,64.6
2.021,64.6
2.0220000000000002,64.4
2.023,64.6
2.024,64.6
2.025,64.8
2.0260000000000002,64.6
2.027,64.6
2.028,64.6
2.029,64.6
2.0300000000000002,64.6
2.031,64.8
2.032,64.6
2.033,64.4
2.0340000000000003,64.8
2.035,64.6
2.036,64.8
2.037,64.6
2.0380000000000003,64.6
2.039,64.8
2.04,64.8
2.041,64.8
2.0420000000000003,64.6
2.043,64.8
2.044,64.8
2.045,64.8
2.0460000000000003,64.8
2.047,64.6
2.048,64.8
2.049,64.6
2.05,64.8
2.051,64.6
2.052,64.6
2.053,64.8
2.054,64.8
2.055,64.8
2.056,64.6
2.057,64.8
2.058,65.0
2.059,65.0
2.06,65.0
2.061,64.8
2.062,65.0
2.063,64.6
2.064,65.0
2.065,64.8
2.066,64.8
2.067,65.0
2.068,65.0
2.069,64.6
2.07,64.8
2.071,65.0
2.072,64.8
2.073,64.8
2.074,64.8
2.075,64.8
2.076,64.8
2.077,65.0
2.078,65.0
2.079,65.0
2.08,65.2
2.081,65.2
2.082,64.8
2.083,65.0
2.084,65.0
2.085,65.0
2.086,65.0
2.087,65.0
2.088,65.2
2.089,65.0
2.09,65.2
2.091,65.0
2.092,65.0
2.093,65.0
2.094,65.2
2.095,65.4
2.096,65.2
2.097,65.0
2.098,65.2
2.099,65.0
2.1,65.2
2.101,65.2
2.102,65.2
2.103,65.2
2.104,65.2
2.105,65.2
2.106,65.2
2.107,65.2
2.108,65.4
2.109,65.2
2.11,65.2
2.111,65.0
2.112,65.0
2.113,65.4
2.114,65.2
2.115,65.2
2.116,65.2
2.117,65.4
2.118,65.4
2.119,65.2
2.12,65.2
2.121,65.2
2.122,65.4
2.123,65.2
2.124,65.4
2.125,65.4
2.126,65.6
2.1270000000000002,65.2
2.128,65.4
2.129,65.4
2.13,65.6
2.1310000000000002,65.4
2.132,65.2
2.133,65.6
2.134,65.4
2.1350000000000002,65.4
2.136,65.4
2.137,65.6
2.138,65.4
2.1390000000000002,65.4
2.14,65.6
2.141,65.2
2.142,65.4
2.1430000000000002,65.8
2.144,65.6
2.145,65.6
2.146,65.4
2.1470000000000002,65.6
2.148,65.6
2.149,65.6
2.15,65.6
2.1510000000000002,65.6
2.152,65.8
2.153,65.6
2.154,65.6
2.1550000000000002,65.6
2.156,65.8
2.157,65.8
2.158,65.8
2.1590000000000003,65.8
2.16,65.8
2.161,65.8
2.162,65.6
2.1630000000000003,65.8
2.164,65.6
2.165,65.8
2.166,65.8
2.1670000000000003,66.0
2.168,65.6
2.169,65.8
2.17,65.8
2.1710000000000003,65.8
2.172,65.8
2.173,66.0
2.174,65.8
2.1750000000000003,65.8
2.176,66.0
2.177,65.8
2.178,66.0
2.179,65.8
2.18,66.0
2.181,65.8
2.182,65.8
2.183,66.0
2.184,66.0
2.185,66.0
2.186,66.0
2.187,66.0
2.188,66.0
2.189,66.2
2.19,66.2
2.191,66.0
2.192,65.8
2.193,66.2
2.194,66.2
2.195,66.2
2.196,66.0
2.197,66.2
2.198,66.0
2.199,66.2
2.2,66.2
2.201,66.2
2.202,66.2
2.203,66.2
2.204,66.0
2.205,66.4
2.206,66.2
2.207,66.2
2.208,66.2
2.209,66.2
2.21,66.2
2.211,66.0
2.212,66.4
2.213,66.2
2.214,66.0
2.215,66.4
2.216,66.4
2.217,66.4
2.218,66.4
2.219,66.2
2.22,66.4
2.221,66.2
2.222,66.4
2.223,66.4
2.224,66.4
2.225,66.4
2.226,66.6
2.227,66.2
2.228,66.4
2.229,66.6
2.23,66.6
2.231,66.6
2.232,66.4
2.233,66.6
2.234,66.6
2.235,66.6
2.236,66.6
2.237,66.6
2.238,66.4
2.239,66.6
2.24,66.6
2.241,66.8
2.242,66.4
2.243,66.6
2.244,66.6
2.245,66.8
2.246,66.6
2.247,66.8
2.248,66.6
2.249,66.8
2.25,66.4
2.251,66.8
2.2520000000000002,66.6
2.253,67.0
2.254,66.6
2.255,66.8
2.2560000000000002,66.8
2.257,66.8
2.258,66.8
2.259,67.0
2.2600000000000002,66.8
2.261,66.8
2.262,66.8
2.263,66.8
2.2640000000000002,67.0
2.265,67.0
2.266,67.0
2.267,66.8
2.2680000000000002,67.0
2.269,67.0
2.27,67.0
2.271,67.0
2.2720000000000002,67.2
2.273,67.0
2.274,67.0
2.275,67.0
2.2760000000000002,67.2
2.277,67.2
2.278,67.0
2.279,67.2
2.2800000000000002,67.2
2.281,67.2
2.282,67.0
2.283,67.2
2.2840000000000003,67.2
2.285,67.2
2.286,67.0
2.287,67.2
2.2880000000000003,67.2
2.289,67.2
2.29,67.2
2.291,67.2
2.2920000000000003,67.2
2.293,67.2
2.294,67.2
2.295,67.2
2.2960000000000003,67.2
2.297,67.2
2.298,67.2
2.299,67.2
2.3000000000000003,67.4
2.301,67.2
2.302,67.4
2.303,67.6
2.3040000000000003,67.4
2.305,67.4
2.306,67.4
2.307,67.4
2.308,67.4
2.309,67.6
2.31,67.4
2.311,67.6
2.312,67.6
2.313,67.4
2.314,67.6
2.315,67.6
2.316,67.6
2.317,67.6
2.318,67.6
2.319,67.6
2.32,67.4
2.321,67.6
2.322,67.8
2.323,67.6
2.324,67.8
2.325,67.6
2.326,67.8
2.327,67.8
2.328,67.6
2.329,67.8
2.33,67.6
2.331,67.8
2.332,68.0
2.333,67.8
2.334,67.8
2.335,67.6
2.336,67.8
2.337,67.8
2.338,67.8
2.339,67.8
2.34,68.0
2.341,67.8
2.342,67.8
2.343,67.8
2.344,68.0
2.345,68.0
2.346,68.0
2.347,68.0
2.348,68.0
2.349,68.0
2.35,68.0
2.351,68.0
2.352,68.2
2.353,68.0
2.354,68.0
2.355,68.2
2.356,68.0
2.357,68.0
2.358,68.2
2.359,68.2
2.36,68.0
2.361,68.0
2.362,68.2
2.363,68.4
2.364,68.2
2.365,68.4
2.366,68.2
2.367,68.2
2.368,68.4
2.369,68.2
2.37,68.2
2.371,68.2
2.372,68.4
2.373,68.4
2.374,68.4
2.375,68.2
2.376,68.2
2.3770000000000002,68.4
2.378,68.4
2.379,68.2
2.38,68.4
2.3810000000000002,68.4
2.382,68.4
2.383,68.6
2.384,68.4
2.3850000000000002,68.4
2.386,68.4
2.387,68.4
2.388,68.6
2.3890000000000002,68.4
2.39,68.6
2.391,68.6
2.392,68.6
2.3930000000000002,68.6
2.394,68.6
2.395,68.6
2.396,68.6
2.3970000000000002,68.6
2.398,68.8
2.399,68.8
2.4,68.6
2.4010000000000002,68.8
2.402,68.8
2.403,68.6
2.404,68.8
2.4050000000000002,68.8
2.406,68.6
2.407,68.8
2.408,68.8
2.4090000000000003,68.6
2.41,68.8
2.411,69.0
2.412,68.8
2.4130000000000003,69.0
2.414,68.8
2.415,69.0
2.416,69.0
2.4170000000000003,68.8
2.418,69.2
2.419,69.0
2.42,69.0
2.4210000000000003,69.0
2.422,69.2
2.423,69.0
2.424,69.0
2.4250000000000003,68.8
2.426,69.0
2.427,69.0
2.428,69.2
2.4290000000000003,69.0
2.43,69.0
2.431,69.2
2.432,69.0
2.433,69.2
2.434,69.0
2.435,69.2
2.436,69.2
2.437,69.2
2.438,69.0
2.439,69.2
2.44,69.4
2.441,69.4
2.442,69.2
2.443,69.4
2.444,69.2
2.445,69.4
2.446,69.2
2.447,69.4
2.448,69.4
2.449,69.4
2.45,69.2
2.451,69.4
2.452,69.4
2.453,69.4
2.454,69.2
2.455,69.4
2.456,69.6
2.457,69.6
2.458,69.6
2.459,69.4
2.46,69.6
2.461,69.6
2.462,69.4
2.463,69.4
2.464,69.6
2.465,69.4
2.466,69.6
2.467,69.8
2.468,69.6
2.469,69.6
2.47,69.6
2.471,69.6
2.472,69.6
2.473,69.8
2.474,69.8
2.475,69.6
2.476,70.0
2.477,69.8
2.478,69.4
2.479,69.8
2.48,69.8
2.481,69.8
2.482,69.8
2.483,69.8
2.484,70.0
2.485,69.8
2.486,69.8
2.487,70.0
2.488,69.8
2.489,69.8
2.49,70.0
2.491,69.8
2.492,70.0
2.493,69.8
2.494,70.0
2.495,69.8
2.496,70.0
2.497,69.8
2.498,70.0
2.499,70.2
2.5,70.0
2.501,69.8
2.5020000000000002,70.0
2.503,70.0
2.504,70.0
2.505,70.2
2.5060000000000002,70.0
2.507,70.2
2.508,70.0
2.509,70.4
2.5100000000000002,70.2
2.511,70.0
2.512,70.2
2.513,70.4
2.5140000000000002,70.4
2.515,70.4
2.516,70.2
2.517,70.0
2.5180000000000002,70.2
2.519,70.2
2.52,70.4
2.521,70.4
2.5220000000000002,70.4
2.523,70.2
2.524,70.4
2.525,70.4
2.5260000000000002,70.4
2.527,70.4
2.528,70.2
2.529,70.4
2.5300000000000002,70.4
2.531,70.4
2.532,70.4
2.533,70.6
2.5340000000000003,70.4
2.535,70.6
2.536,70.2
2.537,70.4
2.5380000000000003,70.4
2.539,70.4
2.54,70.6
2.541,70.6
2.5420000000000003,70.4
2.543,70.4
2.544,70.6
2.545,70.6
2.5460000000000003,70.6
2.547,70.4
2.548,70.6
2.549,70.6
2.5500000000000003,70.6
2.551,70.4
2.552,70.6
2.553,70.8
2.5540000000000003,70.8
2.555,70.8
2.556,70.6
2.557,70.8
2.5580000000000003,70.6
2.559,70.8
2.56,70.6
2.561,70.8
2.562,70.8
2.563,70.8
2.564,70.8
2.565,70.8
2.566,71.0
2.567,70.6
2.568,70.8
2.569,70.8
2.57,70.8
2.571,70.6
2.572,70.8
2.573,71.0
2.574,70.8
2.575,70.8
2.576,71.0
2.577,70.8
2.578,70.8
2.579,70.8
2.58,71.0
2.581,71.0
2.582,70.8
2.583,71.0
2.584,71.0
2.585,71.0
2.586,71.2
2.587,71.2
2.588,71.2
2.589,71.0
2.59,71.0
2.591,71.0
2.592,71.0
2.593,71.0
2.594,71.0
2.595,71.2
2.596,71.2
2.597,71.2
2.598,71.0
2.599,71.2
2.6,71.0
2.601,71.2
2.602,71.2
2.603,71.2
2.604,71.2
2.605,71.2
2.606,71.2
2.607,71.0
2.608,71.4
2.609,71.4
2.61,71.2
2.611,71.2
2.612,71.2
2.613,71.4
2.614,71.4
2.615,71.2
2.616,71.4
2.617,71.2
2.618,71.2
2.619,71.4
2.62,71.6
2.621,71.4
2.622,71.2
2.623,71.2
2.624,71.6
2.625,71.4
2.626,71.4
2.6270000000000002,71.2
2.628,71.4
2.629,71.4
2.63,71.4
2.6310000000000002,71.4
2.632,71.6
2.633,71.6
2.634,71.4
2.6350000000000002,71.2
2.636,71.4
2.637,71.8
2.638,71.4
2.6390000000000002,71.6
2.64,71.6
2.641,71.6
2.642,71.6
2.6430000000000002,71.6
2.644,71.6
2.645,71.6
2.646,71.4
2.6470000000000002,72.0
2.648,71.6
2.649,71.4
2.65,71.6
2.6510000000000002,71.6
2.652,71.6
2.653,71.8
2.654,71.8
2.6550000000000002,71.6
2.656,71.8
2.657,71.4
2.658,71.8
2.6590000000000003,71.8
2.66,71.6
2.661,71.8
2.662,71.6
2.6630000000000003,71.8
2.664,71.6
2.665,72.0
2.666,71.8
2.6670000000000003,71.6
2.668,72.0
2.669,71.8
2.67,71.6
2.6710000000000003,72.0
2.672,72.0
2.673,72.0
2.674,72.0
2.6750000000000003,72.0
2.676,71.8
2.677,71.8
2.678,71.8
2.6790000000000003,72.0
2.68,71.8
2.681,72.0
2.682,72.0
2.6830000000000003,72.0
2.684,72.0
2.685,72.0
2.686,71.8
2.6870000000000003,72.0
2.688,72.0
2.689,72.2
2.69,72.0
2.691,71.8
2.692,72.0
2.693,72.0
2.694,72.2
2.695,72.0
2.696,72.0
2.697,72.0
2.698,72.0
2.699,72.0
2.7,72.2
2.701,72.0
2.702,72.0
2.703,72.2
2.704,72.0
2.705,72.0
2.706,71.8
2.707,72.2
2.708,72.2
2.709,72.0
2.71,72.2
2.711,72.2
2.712,72.2
2.713,72.2
2.714,72.0
2.715,72.2
2.716,72.0
2.717,72.2
2.718,72.4
2.719,72.4
2.72,72.4
2.721,72.2
2.722,72.4
2.723,72.4
2.724,72.6
2.725,72.2
2.726,72.4
2.727,72.2
2.728,72.2
2.729,72.2
2.73,72.2
2.731,72.4
2.732,72.4
2.733,72.4
2.734,72.2
2.735,72.2
2.736,72.4
2.737,72.4
2.738,72.2
2.739,72.4
2.74,72.2
2.741,72.2
2.742,72.2
2.743,72.4
2.744,72.4
2.745,72.4
2.746,72.4
2.747,72.4
2.748,72.4
2.749,72.2
2.75,72.6
2.751,72.4
2.7520000000000002,72.6
2.753,72.4
2.754,72.4
2.755,72.4
2.7560000000000002,72.2
2.757,72.4
2.758,72.4
2.759,72.6
2.7600000000000002,72.6
2.761,72.6
2.762,72.2
2.763,72.4
2.7640000000000002,72.6
2.765,72.6
2.766,72.2
2.767,72.4
2.7680000000000002,72.2
2.769,72.4
2.77,72.6
2.771,72.6
2.7720000000000002,72.4
2.773,72.6
2.774,72.6
2.775,72.2
2.7760000000000002,72.4
2.777,72.6
2.778,72.6
2.779,72.6
2.7800000000000002,72.4
2.781,72.6
2.782,72.6
2.783,72.6
2.7840000000000003,72.6
2.785,72.6
2.786,72.8
2.787,72.6
2.7880000000000003,72.6
2.789,72.6
2.79,72.4
2.791,72.6
2.7920000000000003,72.8
2.793,72.8
2.794,72.6
2.795,72.6
2.7960000000000003,72.8
2.797,72.6
2.798,72.8
2.799,72.8
2.8000000000000003,72.8
2.801,72.8
2.802,72.8
2.803,72.8
2.8040000000000003,72.6
2.805,72.6
2.806,72.8
2.807,72.8
2.8080000000000003,72.8
2.809,72.6
2.81,72.8
2.811,72.8
2.8120000000000003,72.8
2.813,72.6
2.814,72.6
2.815,72.8
2.816,72.6
2.817,72.8
2.818,72.8
2.819,72.8
2.82,72.8
2.821,72.6
2.822,72.8
2.823,73.0
2.824,72.8
2.825,72.8
2.826,72.8
2.827,73.0
2.828,72.8
2.829,72.6
2.83,72.8
2.831,72.8
2.832,73.0
2.833,72.6
2.834,72.6
2.835,72.8
2.836,73.0
2.837,73.0
2.838,72.8
2.839,72.8
2.84,72.8
2.841,73.0
2.842,72.8
2.843,73.0
2.844,72.8
2.845,73.0
2.846,72.8
2.847,72.6
2.848,72.8
2.849,72.8
2.85,73.0
2.851,72.8
2.852,72.8
2.853,72.8
2.854,73.0
2.855,72.6
2.856,73.0
2.857,72.8
2.858,73.0
2.859,72.8
2.86,73.0
2.861,72.6
2.862,73.0
2.863,73.0
2.864,73.0
2.865,72.8
2.866,73.0
2.867,73.0
2.868,73.0
2.869,73.0
2.87,73.0
2.871,73.0
2.872,73.0
2.873,73.2
2.874,72.8
2.875,73.0
2.876,72.8
2.8770000000000002,73.0
2.878,73.2
2.879,73.0
2.88,73.0
2.8810000000000002,72.8
2.882,73.0
2.883,72.8
2.884,73.0
2.8850000000000002,73.0
2.886,72.8
2.887,73.0
2.888,73.0
2.8890000000000002,72.8
2.89,73.2
2.891,73.0
2.892,73.0
2.8930000000000002,72.8
2.894,73.2
2.895,73.0
2.896,73.0
2.8970000000000002,73.0
2.898,73.0
2.899,73.0
2.9,73.0
2.9010000000000002,73.0
2.902,73.0
2.903,72.8
2.904,73.0
2.9050000000000002,73.0
2.906,73.0
2.907,73.0
2.908,73.0
2.9090000000000003,73.0
2.91,73.0
2.911,73.0
2.912,72.8
2.9130000000000003,73.0
2.914,72.8
2.915,72.8
2.916,73.0
2.9170000000000003,73.2
2.918,73.0
2.919,73.0
2.92,73.0
2.9210000000000003,73.0
2.922,73.2
2.923,73.0
2.924,72.8
2.9250000000000003,73.0
2.926,73.0
2.927,73.0
2.928,73.0
2.9290000000000003,73.2
2.93,73.2
2.931,73.2
2.932,73.0
2.9330000000000003,73.0
2.934,73.0
2.935,73.2
2.936,73.0
2.9370000000000003,73.0
2.938,73.2
2.939,73.0
2.94,73.0
2.9410000000000003,73.0
2.942,73.0
2.943,72.8
2.944,73.0
2.945,73.0
2.946,73.0
2.947,72.8
2.948,73.0
2.949,73.0
2.95,73.0
2.951,73.0
2.952,73.0
2.953,73.0
2.954,72.8
2.955,73.0
2.956,73.0
2.957,73.2
2.958,73.0
2.959,73.0
2.96,72.8
2.961,73.0
2.962,73.0
2.963,73.0
2.964,72.8
2.965,73.0
2.966,73.0
2.967,73.0
2.968,73.0
2.969,73.0
2.97,73.0
2.971,73.0
2.972,73.0
2.973,72.8
2.974,73.0
2.975,72.8
2.976,73.2
2.977,73.0
2.978,72.8
2.979,73.2
2.98,73.0
2.981,73.0
2.982,73.0
2.983,72.8
2.984,73.0
2.985,73.2
2.986,73.0
2.987,73.0
2.988,72.8
2.989,73.0
2.99,73.0
2.991,73.2
2.992,72.8
2.993,73.0
2.994,73.0
2.995,73.0
2.996,73.0
2.997,73.0
2.998,73.0
2.999,73.0
3.0,73.0
3.001,72.8
3.0020000000000002,72.8
3.003,72.8
3.004,73.0
3.005,73.0
3.0060000000000002,73.0
3.007,72.8
3.008,73.0
3.009,73.0
3.0100000000000002,73.0
3.011,72.8
3.012,72.8
3.013,72.8
3.0140000000000002,72.8
3.015,72.8
3.016,73.0
3.017,73.0
3.0180000000000002,72.8
3.019,72.8
3.02,73.0
3.021,72.8
3.0220000000000002,73.0
3.023,72.6
3.024,73.0
3.025,72.6
3.0260000000000002,73.0
3.027,72.8
3.028,73.0
3.029,73.0
3.0300000000000002,72.8
3.031,72.6
3.032,72.8
3.033,72.8
3.0340000000000003,73.0
3.035,72.8
3.036,72.8
3.037,72.8
3.0380000000000003,72.8
3.039,72.8
3.04,72.8
3.041,72.6
3.0420000000000003,72.8
3.043,72.8
3.044,72.6
3.045,72.6
3.0460000000000003,72.6
3.047,72.8
3.048,73.0
3.049,72.6
3.0500000000000003,72.8
3.051,72.6
3.052,72.8
3.053,72.4
3.0540000000000003,73.0
3.055,72.6
3.056,72.6
3.057,72.8
3.0580000000000003,73.0
3.059,72.6
3.06,72.8
3.061,72.6
3.0620000000000003,72.4
3.063,72.6
3.064,72.8
3.065,72.6
3.0660000000000003,72.6
3.067,72.8
3.068,72.8
3.069,72.6
3.0700000000000003,72.6
3.071,72.6
3.072,72.6
3.073,72.6
3.074,72.6
3.075,72.8
3.076,72.6
3.077,72.6
3.078,72.6
3.079,72.6
3.08,72.6
3.081,72.6
3.082,72.4
3.083,72.8
3.084,72.6
3.085,72.8
3.086,72.4
3.087,72.4
3.088,72.4
3.089,72.6
3.09,72.6
3.091,72.6
3.092,72.6
3.093,72.4
3.094,72.6
3.095,72.4
3.096,72.4
3.097,72.4
3.098,72.6
3.099,72.6
3.1,72.4
3.101,72.4
3.102,72.2
3.103,72.6
3.104,72.6
3.105,72.4
3.106,72.2
3.107,72.4
3.108,72.4
3.109,72.6
3.11,72.2
3.111,72.4
3.112,72.2
3.113,72.4
3.114,72.4
3.115,72.6
3.116,72.6
3.117,72.4
3.118,72.4
3.119,72.4
3.12,72.4
3.121,72.6
3.122,72.0
3.123,72.4
3.124,72.2
3.125,72.2
3.126,72.2
3.1270000000000002,72.4
3.128,72.2
3.129,72.4
3.13,72.2
3.1310000000000002,72.2
3.132,72.2
3.133,72.2
3.134,72.4
3.1350000000000002,72.2
3.136,72.2
3.137,72.0
3.138,72.2
3.1390000000000002,72.2
3.14,72.0
3.141,72.2
3.142,72.4
3.1430000000000002,72.2
3.144,72.2
3.145,72.0
3.146,72.2
3.1470000000000002,72.2
3.148,72.4
3.149,72.0
3.15,72.2
3.1510000000000002,72.2
3.152,72.0
3.153,72.2
3.154,72.0
3.1550000000000002,72.2
3.156,72.0
3.157,72.2
3.158,72.0
3.1590000000000003,72.0
3.16,72.2
3.161,72.0
3.162,72.0
3.1630000000000003,72.0
3.164,71.8
3.165,72.0
3.166,72.0
3.1670000000000003,72.0
3.168,71.8
3.169,72.0
3.17,72.0
3.1710000000000003,72.0
3.172,71.8
3.173,72.0
3.174,72.0
3.1750000000000003,71.8
3.176,72.0
3.177,72.2
3.178,71.8
3.1790000000000003,72.0
3.18,72.2
3.181,71.8
3.182,72.0
3.1830000000000003,72.0
3.184,72.0
3.185,72.0
3.186,71.8
3.1870000000000003,71.6
3.188,71.8
3.189,72.0
3.19,71.8
3.1910000000000003,72.0
3.192,71.8
3.193,72.0
3.194,71.6
3.1950000000000003,72.0
3.196,72.0
3.197,72.0
3.198,71.8
3.1990000000000003,71.8
3.2,71.8
3.201,71.8
3.202,71.8
3.203,71.6
3.204,71.8
3.205,71.6
3.206,71.8
3.207,71.6
3.208,71.6
3.209,71.6
3.21,71.8
3.211,71.4
3.212,71.8
3.213,71.6
3.214,71.6
3.215,71.6
3.216,71.4
3.217,71.6
3.218,71.6
3.219,71.6
3.22,71.8
3.221,71.4
3.222,71.4
3.223,71.4
3.224,71.6
3.225,71.4
3.226,71.6
3.227,71.6
3.228,71.6
3.229,71.4
3.23,71.6
3.231,71.2
3.232,71.6
3.233,71.6
3.234,71.4
3.235,71.4
3.236,71.4
3.237,71.4
3.238,71.6
3.239,71.4
3.24,71.2
3.241,71.4
3.242,71.4
3.243,71.2
3.244,71.4
3.245,71.4
3.246,71.4
3.247,71.4
3.248,71.6
3.249,71.4
3.25,71.4
3.251,71.2
3.2520000000000002,71.4
3.253,71.2
3.254,71.4
3.255,71.4
3.2560000000000002,71.2
3.257,71.0
3.258,71.0
3.259,71.2
3.2600000000000002,71.2
3.261,71.0
3.262,71.2
3.263,70.8
3.2640000000000002,71.0
3.265,71.0
3.266,71.0
3.267,71.0
3.2680000000000002,71.0
3.269,71.2
3.27,71.0
3.271,71.0
3.2720000000000002,71.0
3.273,71.2
3.274,70.8
3.275,71.0
3.2760000000000002,71.0
3.277,71.0
3.278,71.2
3.279,71.0
3.2800000000000002,71.0
3.281,71.0
3.282,71.0
3.283,71.0
3.2840000000000003,71.0
3.285,70.8
3.286,71.0
3.287,70.8
3.2880000000000003,70.8
3.289,71.0
3.29,70.8
3.291,71.0
3.2920000000000003,70.8
3.293,70.8
3.294,70.8
3.295,71.0
3.2960000000000003,70.8
3.297,70.8
3.298,70.6
3.299,70.6
3.3000000000000003,70.6
3.301,70.8
3.302,71.0
3.303,70.6
3.3040000000000003,70.6
3.305,70.8
3.306,70.6
3.307,70.8
3.3080000000000003,70.6
3.309,70.6
3.31,70.6
3.311,70.6
3.3120000000000003,70.6
3.313,70.8
3.314,70.6
3.315,70.6
3.3160000000000003,70.6
3.317,70.6
3.318,70.6
3.319,70.8
3.3200000000000003,70.4
3.321,70.6
3.322,70.6
3.323,70.4
3.3240000000000003,70.4
3.325,70.4
3.326,70.4
3.327,70.6
3.3280000000000003,70.2
3.329,70.2
3.33,70.4
3.331,70.4
3.332,70.4
3.333,70.4
3.334,70.4
3.335,70.4
3.336,70.2
3.337,70.4
3.338,70.2
3.339,70.2
3.34,70.4
3.341,70.2
3.342,70.4
3.343,70.2
3.344,70.4
3.345,70.4
3.346,70.4
3.347,70.4
3.348,70.4
3.349,70.4
3.35,70.2
3.351,70.0
3.352,69.8
3.353,70.2
3.354,70.0
3.355,70.2
3.356,70.0
3.357,70.0
3.358,70.4
3.359,70.0
3.36,70.0
3.361,70.2
3.362,69.8
3.363,70.0
3.364,70.0
3.365,70.0
3.366,69.8
3.367,70.0
3.368,70.2
3.369,69.8
3.37,69.8
3.371,69.8
3.372,69.8
3.373,69.8
3.374,70.0
3.375,70.0
3.376,69.6
3.3770000000000002,70.0
3.378,70.0
3.379,69.8
3.38,69.8
3.3810000000000002,69.8
3.382,70.0
3.383,69.8
3.384,69.4
3.3850000000000002,69.8
3.386,69.8
3.387,69.8
3.388,69.4
3.3890000000000002,69.8
3.39,69.8
3.391,69.6
3.392,69.6
3.3930000000000002,69.6
3.394,69.8
3.395,69.6
3.396,69.8
3.3970000000000002,69.6
3.398,69.4
3.399,69.4
3.4,69.8
3.4010000000000002,69.6
3.402,69.6
3.403,69.6
3.404,69.4
3.4050000000000002,69.6
3.406,69.6
3.407,69.2
3.408,69.4
3.4090000000000003,69.4
3.41,69.4
3.411,69.2
3.412,69.4
3.4130000000000003,69.2
3.414,69.2
3.415,69.2
3.416,69.2
3.4170000000000003,69.4
3.418,69.4
3.419,69.2
3.42,69.4
3.4210000000000003,69.2
3.422,69.2
3.423,69.2
3.424,69.2
3.4250000000000003,69.2
3.426,69.0
3.427,68.8
3.428,69.2
3.4290000000000003,69.0
3.43,69.2
3.431,69.2
3.432,69.0
3.4330000000000003,69.0
3.434,69.0
3.435,69.0
3.436,69.0
3.4370000000000003,69.2
3.438,69.0
3.439,69.0
3.44,68.8
3.4410000000000003,69.0
3.442,68.8
3.443,69.0
3.444,68.8
3.4450000000000003,68.8
3.446,68.8
3.447,69.0
3.448,69.0
3.4490000000000003,68.8
3.45,68.8
3.451,68.6
3.452,68.8
3.4530000000000003,68.6
3.454,68.8
3.455,68.8
3.456,68.8
3.457,68.8
3.458,68.6
3.459,68.8
3.46,68.6
3.461,68.8
3.462,68.6
3.463,68.6
3.464,68.6
3.465,68.6
3.466,68.6
3.467,68.6
3.468,68.6
3.469,68.6
3.47,68.6
3.471,68.6
3.472,68.4
3.473,68.4
3.474,68.6
3.475,68.6
3.476,68.4
3.477,68.6
3.478,68.2
3.479,68.4
3.48,68.4
3.481,68.4
3.482,68.4
3.483,68.4
3.484,68.2
3.485,68.4
3.486,68.4
3.487,68.6
3.488,68.4
3.489,68.4
3.49,68.4
3.491,68.2
3.492,68.2
3.493,68.4
3.494,68.2
3.495,68.2
3.496,68.0
3.497,68.4
3.498,68.0
3.499,68.2
3.5,68.2
3.501,68.2
3.5020000000000002,68.0
3.503,68.0
3.504,68.2
3.505,68.0
3.5060000000000002,68.0
3.507,68.0
3.508,67.8
3.509,68.0
3.5100000000000002,68.2
3.511,68.0
3.512,68.0
3.513,67.8
3.5140000000000002,68.0
3.515,68.0
3.516,68.0
3.517,67.8
3.5180000000000002,67.8
3.519,67.8
3.52,67.8
3.521,67.8
3.5220000000000002,67.8
3.523,68.0
3.524,67.8
3.525,68.0
3.5260000000000002,67.8
3.527,67.8
3.528,67.6
3.529,67.6
3.5300000000000002,67.8
3.531,67.6
3.532,67.6
3.533,67.8
3.5340000000000003,67.6
3.535,67.6
3.536,67.6
3.537,67.6
3.5380000000000003,67.6
3.539,67.6
3.54,67.6
3.541,67.4
3.5420000000000003,67.6
3.543,67.6
3.544,67.6
3.545,67.6
3.5460000000000003,67.4
3.547,67.6
3.548,67.4
3.549,67.6
3.5500000000000003,67.4
3.551,67.6
3.552,67.4
3.553,67.4
3.5540000000000003,67.4
3.555,67.4
3.556,67.4
3.557,67.4
3.5580000000000003,67.4
3.559,67.6
3.56,67.4
3.561,67.4
3.5620000000000003,67.4
3.563,67.2
3.564,67.2
3.565,67.4
3.5660000000000003,67.4
3.567,67.2
3.568,67.2
3.569,67.2
3.5700000000000003,67.2
3.571,67.4
3.572,67.2
3.573,67.2
3.5740000000000003,67.2
3.575,67.2
3.576,67.2
3.577,67.2
3.5780000000000003,67.0
3.579,67.0
3.58,67.2
3.581,67.0
3.5820000000000003,67.2
3.583,66.8
3.584,66.8
3.585,67.0
3.586,67.2
3.587,67.0
3.588,67.0
3.589,66.8
3.59,67.0
3.591,67.0
3.592,67.0
3.593,67.0
3.594,66.8
3.595,66.8
3.596,66.8
3.597,66.8
3.598,67.0
3.599,67.0
3.6,66.8
3.601,66.8
3.602,66.8
3.603,66.6
3.604,66.8
3.605,66.6
3.606,66.8
3.607,66.8
3.608,66.8
3.609,66.8
3.61,66.8
3.611,66.8
3.612,66.8
3.613,66.6
3.614,66.8
3.615,66.8
3.616,66.6
3.617,66.6
3.618,66.8
3.619,66.6
3.62,66.4
3.621,66.6
3.622,66.4
3.623,66.6
3.624,66.6
3.625,66.4
3.626,66.4
3.6270000000000002,66.6
3.628,66.6
3.629,66.4
3.63,66.4
3.6310000000000002,66.2
3.632,66.4
3.633,66.4
3.634,66.4
3.6350000000000002,66.4
3.636,66.2
3.637,66.4
3.638,66.4
3.6390000000000002,66.4
3.64,66.4
3.641,66.4
3.642,66.4
3.6430000000000002,66.4
3.644,66.4
3.645,66.2
3.646,66.2
3.6470000000000002,66.0
3.648,66.4
3.649,66.2
3.65,66.4
3.6510000000000002,66.4
3.652,66.2
3.653,66.0
3.654,66.2
3.6550000000000002,66.0
3.656,66.0
3.657,66.0
3.658,66.2
3.6590000000000003,66.2
3.66,66.0
3.661,66.2
3.662,66.0
3.6630000000000003,66.0
3.664,66.0
3.665,66.2
3.666,65.8
3.6670000000000003,66.0
3.668,66.0
3.669,66.2
3.67,66.0
3.6710000000000003,66.2
3.672,66.0
3.673,65.8
3.674,66.0
3.6750000000000003,66.0
3.676,65.8
3.677,66.0
3.678,66.0
3.6790000000000003,65.8
3.68,66.0
3.681,65.8
3.682,65.8
3.6830000000000003,65.8
3.684,65.8
3.685,65.8
3.686,66.0
3.6870000000000003,66.0
3.688,66.0
3.689,65.8
3.69,65.8
3.6910000000000003,65.8
3.692,65.8
3.693,65.8
3.694,65.6
3.6950000000000003,65.6
3.696,65.6
3.697,65.8
3.698,65.8
3.6990000000000003,65.6
3.7,65.4
3.701,65.6
3.702,65.8
3.7030000000000003,65.6
3.704,65.4
3.705,65.6
3.706,65.6
3.7070000000000003,65.4
3.708,65.6
3.709,65.8
3.71,65.8
3.7110000000000003,65.4
3.712,65.4
3.713,65.4
3.714,65.6
3.715,65.6
3.716,65.4
3.717,65.8
3.718,65.4
3.719,65.4
3.72,65.4
3.721,65.6
3.722,65.4
3.723,65.6
3.724,65.2
3.725,65.2
3.726,65.2
3.727,65.4
3.728,65.2
3.729,65.2
3.73,65.4
3.731,65.0
3.732,65.2
3.733,65.2
3.734,65.2
3.735,65.0
3.736,65.2
3.737,65.2
3.738,65.2
3.739,65.0
3.74,65.2
3.741,65.0
3.742,65.4
3.743,65.4
3.744,65.2
3.745,65.2
3.746,65.0
3.747,65.2
3.748,65.2
3.749,65.0
3.75,65.2
3.751,65.0
3.7520000000000002,65.2
3.753,65.0
3.754,65.2
3.755,65.0
3.7560000000000002,65.0
3.757,65.0
3.758,64.8
3.759,65.0
3.7600000000000002,65.2
3.761,65.0
3.762,64.8
3.763,65.0
3.7640000000000002,65.0
3.765,65.0
3.766,64.8
3.767,65.0
3.7680000000000002,64.8
3.769,64.8
3.77,65.0
3.771,65.0
3.7720000000000002,65.0
3.773,65.0
3.774,64.8
3.775,65.0
3.7760000000000002,65.0
3.777,65.0
3.778,65.0
3.779,65.2
3.7800000000000002,64.8
3.781,64.8
3.782,64.8
3.783,65.0
3.7840000000000003,64.8
3.785,65.0
3.786,64.8
3.787,64.8
3.7880000000000003,64.8
3.789,64.8
3.79,64.8
3.791,64.8
3.7920000000000003,64.8
3.793,64.8
3.794,64.6
3.795,64.4
3.7960000000000003,64.8
3.797,64.8
3.798,64.6
3.799,64.6
3.8000000000000003,64.6
3.801,64.8
3.802,64.6
3.803,64.6
3.8040000000000003,64.6
3.805,64.6
3.806,64.6
3.807,64.8
3.8080000000000003,64.8
3.809,64.8
3.81,64.4
3.811,64.8
3.8120000000000003,64.8
3.813,64.8
3.814,64.8
3.815,64.6
3.8160000000000003,64.8
3.817,64.6
3.818,64.6
3.819,64.6
3.8200000000000003,64.8
3.821,64.6
3.822,64.8
3.823,64.4
3.8240000000000003,64.4
3.825,64.6
3.826,64.8
3.827,64.6
3.8280000000000003,64.4
3.829,64.4
3.83,64.6
3.831,64.4
3.8320000000000003,64.4
3.833,64.4
3.834,64.2
3.835,64.6
3.8360000000000003,64.6
3.837,64.4
3.838,64.4
3.839,64.6
3.84,64.4
3.841,64.4
3.842,64.8
3.843,64.4
3.844,64.6
3.845,64.4
3.846,64.6
3.847,64.4
3.848,64.4
3.849,64.4
3.85,64.6
3.851,64.4
3.852,64.4
3.853,64.6
3.854,64.4
3.855,64.2
3.856,64.4
3.857,64.2
3.858,64.2
3.859,64.4
3.86,64.4
3.861,64.6
3.862,64.4
3.863,64.6
3.864,64.4
3.865,64.2
3.866,64.2
3.867,64.6
3.868,64.2
3.869,64.4
3.87,64.4
3.871,64.2
3.872,64.4
3.873,64.4
3.874,64.2
3.875,64.4
3.876,64.4
3.8770000000000002,64.4
3.878,64.2
3.879,64.2
3.88,64.2
3.8810000000000002,64.2
3.882,64.4
3.883,64.4
3.884,64.4
3.8850000000000002,64.4
3.886,64.4
3.887,64.2
3.888,64.2
3.8890000000000002,64.2
3.89,64.2
3.891,64.2
3.892,64.2
3.8930000000000002,64.0
3.894,64.2
3.895,64.2
3.896,64.4
3.8970000000000002,64.2
3.898,64.0
3.899,64.2
3.9,64.2
3.9010000000000002,64.2
3.902,64.0
3.903,64.2
3.904,64.0
3.9050000000000002,64.2
3.906,64.2
3.907,64.2
3.908,64.2
3.9090000000000003,64.2
3.91,64.2
3.911,64.2
3.912,64.2
3.9130000000000003,64.2
3.914,64.2
3.915,64.2
3.916,64.0
3.9170000000000003,64.0
3.918,64.0
3.919,64.2
3.92,64.2
3.9210000000000003,64.2
3.922,64.0
3.923,64.0
3.924,64.2
3.9250000000000003,64.2
3.926,64.2
3.927,64.2
3.928,64.0
3.9290000000000003,63.8
3.93,64.0
3.931,64.2
3.932,64.0
3.9330000000000003,64.0
3.934,64.2
3.935,64.0
3.936,64.2
3.9370000000000003,64.0
3.938,64.2
3.939,64.0
3.94,64.0
3.9410000000000003,64.2
3.942,64.2
3.943,64.2
3.944,63.8
3.9450000000000003,64.0
3.946,64.0
3.947,64.0
3.948,64.2
3.9490000000000003,64.0
3.95,63.8
3.951,64.0
3.952,64.2
3.9530000000000003,64.0
3.954,64.0
3.955,64.2
3.956,64.0
3.9570000000000003,64.0
3.958,64.0
3.959,64.2
3.96,64.0
3.9610000000000003,64.0
3.962,64.0
3.963,64.0
3.964,63.8
3.9650000000000003,63.8
3.966,64.0
3.967,64.0
3.968,63.8
3.969,64.0
3.97,63.8
3.971,64.0
3.972,64.2
3.973,64.0
3.974,64.0
3.975,64.0
3.976,64.2
3.977,63.8
3.978,63.8
3.979,64.0
3.98,63.8
3.981,64.2
3.982,63.8
3.983,63.8
3.984,63.8
3.985,64.0
3.986,63.8
3.987,64.0
3.988,64.2
3.989,63.8
3.99,64.0
3.991,63.8
3.992,63.6
3.993,63.8
3.994,64.0
3.995,64.0
3.996,63.8
3.997,63.8
3.998,63.8
3.999,64.0
4.0,64.0
4.001,63.6
4.002,64.0
4.003,63.8
4.0040000000000004,63.8
4.005,63.8
4.006,64.0
4.007,64.0
4.008,63.8
4.009,63.8
4.01,63.8
4.011,64.0
4.0120000000000005,64.0
4.013,63.8
4.014,63.8
4.015,64.0
4.016,63.6
4.017,63.8
4.018,63.8
4.019,63.8
4.0200000000000005,64.0
4.021,63.6
4.022,63.8
4.023,63.6
4.024,64.0
4.025,63.8
4.026,64.0
4.027,63.8
4.0280000000000005,63.8
4.029,63.8
4.03,64.0
4.031,63.8
4.032,63.6
4.033,63.8
4.034,63.8
4.035,63.6
4.0360000000000005,63.8
4.037,63.8
4.038,63.8
4.039,63.8
4.04,63.8
4.041,64.0
4.042,63.8
4.043,63.6
4.0440000000000005,63.8
4.045,63.8
4.046,63.8
4.047,63.8
4.048,63.8
4.049,63.8
4.05,63.8
4.051,64.0
4.0520000000000005,63.6
4.053,63.8
4.054,63.8
4.055,63.6
4.056,63.8
4.057,63.8
4.058,63.6
4.059,63.6
4.0600000000000005,63.8
4.061,63.8
4.062,63.6
4.063,63.6
4.064,63.8
4.065,63.8
4.066,63.8
4.067,63.8
4.0680000000000005,63.8
4.069,63.8
4.07,63.6
4.071,64.0
4.072,63.8
4.073,64.0
4.074,64.0
4.075,63.8
4.0760000000000005,63.8
4.077,63.6
4.078,63.8
4.079,63.8
4.08,63.8
4.081,63.8
4.082,63.8
4.083,63.8
4.0840000000000005,63.8
4.085,63.6
4.086,63.8
4.087,64.0
4.088,64.2
4.089,63.8
4.09,63.8
4.091,63.6
4.0920000000000005,63.8
4.093,64.0
4.094,64.0
4.095,63.6
4.096,63.8
4.097,63.8
4.098,63.8
4.099,64.0
4.1,63.8
4.101,64.0
4.102,63.6
4.103,63.8
4.104,63.8
4.105,63.8
4.106,63.6
4.107,63.8
4.108,63.8
4.109,63.8
4.11,64.0
4.111,64.0
4.112,63.8
4.113,63.8
4.114,63.8
4.115,63.8
4.116,64.0
4.117,64.0
4.118,63.8
4.119,63.8
4.12,63.8
4.121,64.0
4.122,63.8
4.123,64.0
4.124,64.0
4.125,64.0
4.126,64.0
4.127,63.8
4.128,63.8
4.1290000000000004,64.0
4.13,64.0
4.131,63.6
4.132,64.2
4.133,63.8
4.134,64.0
4.135,64.0
4.136,64.0
4.1370000000000005,64.0
4.138,63.8
4.139,64.0
4.14,64.2
4.141,64.0
4.142,64.0
4.143,64.0
4.144,64.0
4.1450000000000005,64.0
4.146,64.2
4.147,64.2
4.148,64.0
4.149,64.0
4.15,64.0
4.151,64.0
4.152,63.8
4.1530000000000005,64.0
4.154,64.0
4.155,64.0
4.156,64.2
4.157,64.2
4.158,64.0
4.159,64.2
4.16,64.2
4.1610000000000005,64.0
4.162,64.0
4.163,64.0
4.164,64.2
4.165,64.0
4.166,64.2
4.167,64.2
4.168,64.0
4.1690000000000005,64.2
4.17,64.2
4.171,64.0
4.172,64.2
4.173,64.2
4.174,64.2
4.175,64.2
4.176,64.0
4.1770000000000005,64.2
4.178,64.2
4.179,64.2
4.18,64.2
4.181,64.4
4.182,64.2
4.183,64.2
4.184,64.2
4.1850000000000005,64.2
4.186,64.2
4.187,64.2
4.188,64.4
4.189,64.4
4.19,64.0
4.191,64.2
4.192,64.4
4.1930000000000005,64.4
4.194,64.2
4.195,64.2
4.196,64.4
4.197,64.4
4.198,64.4
4.199,64.2
4.2,64.2
4.2010000000000005,64.2
4.202,64.4
4.203,64.6
4.204,64.4
4.205,64.6
4.206,64.4
4.207,64.6
4.208,64.4
4.2090000000000005,64.4
4.21,64.6
4.211,64.2
4.212,64.6
4.213,64.4
4.214,64.4
4.215,64.4
4.216,64.6
4.2170000000000005,64.4
4.218,64.4
4.219,64.4
4.22,64.4
4.221,64.6
4.222,64.6
4.223,64.6
4.224,64.6
4.225,64.6
4.226,64.6
4.227,64.6
4.228,64.8
4.229,64.6
4.23,64.6
4.231,64.8
4.232,64.6
4.233,64.6
4.234,64.6
4.235,64.8
4.236,64.8
4.237,64.8
4.238,65.0
4.239,64.8
4.24,64.8
4.241,64.6
4.242,64.8
4.243,64.8
4.244,65.0
4.245,64.8
4.246,64.8
4.247,64.6
4.248,64.8
4.249,65.0
4.25,65.0
4.251,64.8
4.252,65.0
4.253,64.8
4.2540000000000004,64.8
4.255,65.0
4.256,65.0
4.257,65.0
4.258,65.2
4.259,65.2
4.26,65.0
4.261,65.0
4.2620000000000005,65.0
4.263,65.2
4.264,65.2
4.265,65.2
4.266,65.4
4.267,65.2
4.268,65.4
4.269,65.4
4.2700000000000005,65.2
4.271,65.2
4.272,65.4
4.273,65.4
4.274,65.4
4.275,65.0
4.276,65.4
4.277,65.4
4.2780000000000005,65.4
4.279,65.4
4.28,65.4
4.281,65.4
4.282,65.4
4.283,65.4
4.284,65.6
4.285,65.8
4.2860000000000005,65.6
4.287,65.6
4.288,65.6
4.289,65.6
4.29,65.6
4.291,66.0
4.292,65.8
4.293,65.6
4.2940000000000005,65.8
4.295,66.0
4.296,65.8
4.297,66.0
4.298,65.8
4.299,65.8
4.3,65.8
4.301,65.8
4.3020000000000005,65.8
4.303,66.0
4.304,66.0
4.305,66.0
4.306,66.0
4.307,66.2
4.308,66.0
4.309,66.2
4.3100000000000005,66.0
4.311,66.2
4.312,66.0
4.313,66.0
4.314,66.2
4.315,66.2
4.316,66.4
4.317,66.4
4.3180000000000005,66.2
4.319,66.2
4.32,66.2
4.321,66.4
4.322,66.4
4.323,66.4
4.324,66.4
4.325,66.4
4.3260000000000005,66.4
4.327,66.6
4.328,66.8
4.329,66.4
4.33,66.6
4.331,66.6
4.332,66.6
4.333,66.6
4.3340000000000005,66.6
4.335,66.8
4.336,66.8
4.337,66.6
4.338,66.8
4.339,67.0
4.34,66.8
4.341,66.8
4.3420000000000005,67.0
4.343,67.0
4.344,67.0
4.345,66.8
4.346,66.8
4.347,67.0
4.348,67.0
4.349,67.0
4.3500000000000005,67.2
4.351,67.0
4.352,67.2
4.353,67.2
4.354,67.4
4.355,67.2
4.356,67.2
4.357,67.4
4.358,67.4
4.359,67.2
4.36,67.4
4.361,67.4
4.362,67.4
4.363,67.4
4.364,67.6
4.365,67.6
4.366,67.6
4.367,67.6
4.368,67.4
4.369,67.6
4.37,67.8
4.371,67.8
4.372,67.8
4.373,67.8
4.374,67.6
4.375,67.8
4.376,67.6
4.377,67.8
4.378,68.0
4.3790000000000004,67.8
4.38,67.8
4.381,68.0
4.382,68.0
4.383,68.0
4.384,68.0
4.385,68.0
4.386,68.0
4.3870000000000005,68.2
4.388,68.2
4.389,68.2
4.39,68.2
4.391,68.2
4.392,68.4
4.393,68.4
4.394,68.4
4.3950000000000005,68.4
4.396,68.4
4.397,68.4
4.398,68.4
4.399,68.4
4.4,68.2
4.401,68.4
4.402,68.8
4.4030000000000005,68.6
4.404,68.6
4.405,68.6
4.406,68.8
4.407,68.6
4.408,69.0
4.409,68.8
4.41,68.6
4.4110000000000005,69.0
4.412,68.8
4.413,69.0
4.414,69.0
4.415,69.0
4.416,69.0
4.417,69.0
4.418,69.0
4.4190000000000005,69.0
4.42,69.0
4.421,69.0
4.422,69.2
4.423,69.2
4.424,69.2
4.425,69.2
4.426,69.2
4.4270000000000005,69.4
4.428,69.4
4.429,69.2
4.43,69.4
4.431,69.4
4.432,69.4
4.433,69.2
4.434,69.6
4.4350000000000005,69.8
4.436,69.6
4.437,69.4
4.438,69.6
4.439,69.4
4.44,69.8
4.441,69.6
4.442,69.8
4.4430000000000005,69.8
4.444,69.8
4.445,69.6
4.446,69.6
4.447,70.0
4.448,69.8
4.449,70.0
4.45,70.0
4.4510000000000005,69.8
4.452,69.8
4.453,70.0
4.454,70.0
4.455,70.0
4.456,70.0
4.457,70.2
4.458,70.2
4.4590000000000005,70.2
4.46,70.0
4.461,70.4
4.462,70.2
4.463,70.4
4.464,70.4
4.465,70.2
4.466,70.4
4.4670000000000005,70.4
4.468,70.4
4.469,70.4
4.47,70.6
4.471,70.6
4.472,70.6
4.473,70.4
4.474,70.6
4.4750000000000005,70.4
4.476,70.6
4.477,70.6
4.478,70.8
4.479,70.8
4.48,70.8
4.481,70.6
4.482,71.0
4.483,70.8
4.484,70.8
4.485,71.2
4.486,70.8
4.487,70.8
4.488,70.8
4.489,71.0
4.49,71.2
4.491,70.8
4.492,71.0
4.493,71.0
4.494,71.0
4.495,71.0
4.496,70.8
4.497,71.0
4.498,71.0
4.499,71.0
4.5,71.2
4.501,71.0
4.502,71.4
4.503,71.0
4.5040000000000004,71.2
4.505,71.4
4.506,71.2
4.507,71.4
4.508,71.2
4.509,71.4
4.51,71.2
4.511,71.4
4.5120000000000005,71.2
4.513,71.4
4.514,71.4
4.515,71.4
4.516,71.4
4.517,71.4
4.518,71.4
4.519,71.6
4.5200000000000005,71.6
4.521,71.6
4.522,71.6
4.523,71.6
4.524,71.8
4.525,71.6
4.526,71.8
4.527,71.6
4.5280000000000005,72.0
4.529,71.8
4.53,71.8
4.531,71.8
4.532,72.0
4.533,72.0
4.534,71.8
4.535,72.0
4.5360000000000005,72.0
4.537,72.0
4.538,71.6
4.539,72.0
4.54,71.8
4.541,72.0
4.542,72.0
4.543,72.0
4.5440000000000005,71.8
4.545,71.8
4.546,72.2
4.547,72.0
4.548,71.8
4.549,72.0
4.55,72.0
4.551,72.0
4.5520000000000005,72.0
4.553,72.2
4.554,72.0
4.555,72.2
4.556,72.0
4.557,72.0
4.558,72.0
4.559,72.0
4.5600000000000005,72.0
4.561,72.2
4.562,72.2
4.563,72.4
4.564,72.4
4.565,72.4
4.566,72.4
4.567,72.2
4.5680000000000005,72.4
4.569,72.4
4.57,72.4
4.571,72.4
4.572,72.4
4.573,72.4
4.574,72.4
4.575,72.6
4.5760000000000005,72.4
4.577,72.4
4.578,72.6
4.579,72.4
4.58,72.4
4.581,72.6
4.582,72.6
4.583,72.6
4.5840000000000005,72.6
4.585,72.4
4.586,72.4
4.587,72.4
4.588,72.6
4.589,72.6
4.59,72.6
4.591,72.4
4.5920000000000005,72.8
4.593,72.6
4.594,72.6
4.595,72.6
4.596,72.6
4.597,72.6
4.598,72.6
4.599,72.8
4.6000000000000005,72.8
4.601,72.8
4.602,72.6
4.603,72.8
4.604,72.8
4.605,72.8
4.606,72.8
4.607,72.8
4.6080000000000005,73.0
4.609,73.0
4.61,72.6
4.611,72.8
4.612,72.8
4.613,72.8
4.614,73.0
4.615,72.8
4.616,72.6
4.617,72.8
4.618,73.0
4.619,73.0
4.62,73.0
4.621,72.8
4.622,73.0
4.623,72.8
4.624,72.8
4.625,72.8
4.626,72.8
4.627,72.8
4.628,72.8
4.6290000000000004,72.8
4.63,72.8
4.631,73.0
4.632,73.0
4.633,73.0
4.634,73.0
4.635,72.8
4.636,73.0
4.6370000000000005,72.8
4.638,73.0
4.639,73.0
4.64,73.0
4.641,73.2
4.642,73.0
4.643,72.8
4.644,72.8
4.6450000000000005,73.0
4.646,73.0
4.647,72.8
4.648,72.8
4.649,73.0
4.65,73.0
4.651,73.0
4.652,73.0
4.6530000000000005,72.8
4.654,73.0
4.655,73.0
4.656,73.0
4.657,73.0
4.658,73.0
4.659,73.2
4.66,73.0
4.6610000000000005,73.0
4.662,73.0
4.663,73.0
4.664,73.0
4.665,73.0
4.666,72.8
4.667,72.8
4.668,72.8
4.6690000000000005,73.0
4.67,72.8
4.671,72.8
4.672,72.8
4.673,73.0
4.674,73.0
4.675,72.8
4.676,73.0
4.6770000000000005,73.0
4.678,73.0
4.679,72.8
4.68,73.0
4.681,72.8
4.682,73.0
4.683,72.8
4.684,72.8
4.6850000000000005,72.8
4.686,72.6
4.687,72.8
4.688,72.8
4.689,72.6
4.69,72.8
4.691,72.6
4.692,72.8
4.6930000000000005,73.0
4.694,72.6
4.695,72.8
4.696,72.6
4.697,72.8
4.698,73.0
4.699,72.8
4.7,72.8
4.7010000000000005,72.6
4.702,72.6
4.703,72.8
4.704,72.6
4.705,72.8
4.706,72.6
4.707,72.6
4.708,72.6
4.7090000000000005,72.4
4.71,72.4
4.711,72.8
4.712,72.8
4.713,72.6
4.714,72.4
4.715,72.4
4.716,72.6
4.7170000000000005,72.6
4.718,72.6
4.719,72.6
4.72,72.4
4.721,72.6
4.722,72.4
4.723,72.4
4.724,72.6
4.7250000000000005,72.4
4.726,72.4
4.727,72.4
4.728,72.2
4.729,72.4
4.73,72.4
4.731,72.6
4.732,72.4
4.7330000000000005,72.4
4.734,72.4
4.735,72.4
4.736,72.2
4.737,72.4
4.738,72.2
4.739,72.4
4.74,72.4
4.741,72.2
4.742,72.2
4.743,72.2
4.744,72.2
4.745,72.0
4.746,72.0
4.747,72.4
4.748,72.0
4.749,72.0
4.75,72.2
4.751,72.2
4.752,72.0
4.753,72.0
4.7540000000000004,72.0
4.755,72.0
4.756,71.8
4.757,72.0
4.758,72.0
4.759,71.8
4.76,72.0
4.761,72.0
4.7620000000000005,71.8
4.763,72.0
4.764,72.0
4.765,71.8
4.766,72.0
4.767,72.0
4.768,72.0
4.769,72.0
4.7700000000000005,71.8
4.771,71.6
4.772,71.8
4.773,72.0
4.774,71.6
4.775,71.6
4.776,72.0
4.777,71.6
4.7780000000000005,71.6
4.779,71.6
4.78,71.6
4.781,71.6
4.782,71.6
4.783,71.4
4.784,71.4
4.785,71.4
4.7860000000000005,71.6
4.787,71.4
4.788,71.2
4.789,71.4
4.79,71.4
4.791,71.4
4.792,71.6
4.793,71.4
4.7940000000000005,71.2
4.795,71.2
4.796,71.2
4.797,71.4
4.798,71.4
4.799,71.2
4.8,71.4
4.801,71.2
4.8020000000000005,71.2
4.803,71.2
4.804,71.2
4.805,71.0
4.806,71.2
4.807,71.0
4.808,71.0
4.809,71.0
4.8100000000000005,71.0
4.811,71.0
4.812,71.0
4.813,70.8
4.814,70.8
4.815,70.8
4.816,71.0
4.817,71.0
4.8180000000000005,70.8
4.819,70.8
4.82,70.6
4.821,70.8
4.822,70.8
4.823,70.8
4.824,70.6
4.825,70.8
4.8260000000000005,70.6
4.827,70.4
4.828,70.4
4.829,70.6
4.83,70.6
4.831,70.4
4.832,70.4
4.833,70.6
4.8340000000000005,70.4
4.835,70.4
4.836,70.4
4.837,70.4
4.838,70.4
4.839,70.4
4.84,70.4
4.841,70.2
4.8420000000000005,70.2
4.843,70.4
4.844,70.0
4.845,70.0
4.846,70.4
4.847,70.2
4.848,69.8
4.849,70.4
4.8500000000000005,70.0
4.851,69.8
4.852,70.0
4.853,70.0
4.854,69.8
4.855,69.8
4.856,69.8
4.857,69.8
4.8580000000000005,69.8
4.859,69.8
4.86,69.8
4.861,69.8
4.862,69.8
4.863,69.8
4.864,69.6
4.865,69.6
4.866,69.4
4.867,69.4
4.868,69.4
4.869,69.4
4.87,69.4
4.871,69.4
4.872,69.6
4.873,69.4
4.874,69.2
4.875,69.4
4.876,69.2
4.877,69.2
4.878,69.4
4.8790000000000004,69.2
4.88,69.4
4.881,69.2
4.882,69.0
4.883,69.0
4.884,69.0
4.885,69.2
4.886,69.2
4.8870000000000005,68.8
4.888,68.8
4.889,69.0
4.89,68.8
4.891,69.0
4.892,68.8
4.893,68.8
4.894,68.8
4.8950000000000005,68.8
4.896,68.8
4.897,68.8
4.898,68.6
4.899,68.6
4.9,68.6
4.901,68.6
4.902,68.6
4.9030000000000005,68.4
4.904,68.4
4.905,68.4
4.906,68.2
4.907,68.2
4.908,68.2
4.909,68.4
4.91,68.4
4.9110000000000005,68.4
4.912,68.2
4.913,68.2
4.914,68.2
4.915,68.0
4.916,68.2
4.917,68.0
4.918,68.0
4.9190000000000005,68.0
4.92,68.2
4.921,68.2
4.922,68.0
4.923,67.8
4.924,68.0
4.925,67.8
4.926,67.8
4.9270000000000005,67.8
4.928,68.0
4.929,67.6
4.93,67.6
4.931,67.6
4.932,67.6
4.933,67.8
4.934,67.6
4.9350000000000005,67.6
4.936,67.6
4.937,67.4
4.938,67.6
4.939,67.4
4.94,67.4
4.941,67.4
4.942,67.4
4.9430000000000005,67.4
4.944,67.4
4.945,67.2
4.946,67.2
4.947,67.4
4.948,67.2
4.949,67.4
4.95,67.2
4.9510000000000005,67.2
4.952,67.2
4.953,67.2
4.954,67.0
4.955,67.0
4.956,67.0
4.957,66.8
4.958,67.0
4.9590000000000005,66.8
4.96,66.8
4.961,67.0
4.962,66.8
4.963,66.8
4.964,67.0
4.965,66.6
4.966,66.8
4.9670000000000005,66.6
4.968,66.6
4.969,66.8
4.97,66.6
4.971,66.6
4.972,66.6
4.973,66.6
4.974,66.4
4.9750000000000005,66.4
4.976,66.6
4.977,66.4
4.978,66.4
4.979,66.4
4.98,66.4
4.981,66.4
4.982,66.0
4.9830000000000005,66.2
4.984,66.4
4.985,66.4
4.986,66.2
4.987,66.2
4.988,66.4
4.989,66.2
4.99,66.2
4.9910000000000005,66.0
4.992,66.0
4.993,66.0
4.994,66.0
4.995,66.0
4.996,66.2
4.997,66.0
4.998,65.8
4.999,65.8
5.0,66.0
5.001,65.8
5.002,65.8
5.003,65.6
5.0040000000000004,65.8
5.005,65.6
5.006,65.6
5.007,65.6
5.008,65.8
5.009,65.6
5.01,65.8
5.011,65.6
5.0120000000000005,65.6
5.013,65.6
5.014,65.6
5.015,65.8
5.016,65.4
5.017,65.4
5.018,65.4
5.019,65.2
5.0200000000000005,65.4
5.021,65.2
5.022,65.2
5.023,65.4
5.024,65.2
5.025,65.2
5.026,65.0
5.027,65.2
5.0280000000000005,65.2
5.029,65.2
5.03,65.2
5.031,65.2
5.032,65.0
5.033,65.0
5.034,65.2
5.035,65.0
5.0360000000000005,65.0
5.037,65.2
5.038,65.0
5.039,64.8
5.04,65.0
5.041,65.0
5.042,64.8
5.043,64.6
5.0440000000000005,65.0
5.045,64.8
5.046,64.8
5.047,65.0
5.048,64.8
5.049,64.6
5.05,65.0
5.051,64.8
5.0520000000000005,64.6
5.053,64.6
5.054,64.6
5.055,64.8
5.056,64.8
5.057,64.8
5.058,64.8
5.059,64.6
5.0600000000000005,64.6
5.061,64.8
5.062,64.6
5.063,64.8
5.064,64.6
5.065,64.6
5.066,64.6
5.067,64.4
5.0680000000000005,64.6
5.069,64.4
5.07,64.6
5.071,64.6
5.072,64.6
5.073,64.4
5.074,64.4
5.075,64.4
5.0760000000000005,64.4
5.077,64.4
5.078,64.4
5.079,64.4
5.08,64.4
5.081,64.2
5.082,64.2
5.083,64.4
5.0840000000000005,64.4
5.085,64.2
5.086,64.2
5.087,64.4
5.088,64.4
5.089,64.4
5.09,64.2
5.091,64.2
5.0920000000000005,64.0
5.093,64.2
5.094,64.2
5.095,64.2
5.096,64.4
5.097,64.2
5.098,64.2
5.099,64.4
5.1000000000000005,64.2
5.101,64.2
5.102,64.0
5.103,64.2
5.104,64.0
5.105,64.2
5.106,64.0
5.107,64.4
5.1080000000000005,64.2
5.109,64.2
5.11,63.8
5.111,64.0
5.112,64.0
5.113,64.2
5.114,64.0
5.115,64.0
5.1160000000000005,64.0
5.117,64.0
5.118,64.0
5.119,64.2
5.12,64.2
5.121,63.8
5.122,64.0
5.123,63.8
5.124,64.0
5.125,64.0
5.126,64.0
5.127,64.0
5.128,64.0
5.1290000000000004,64.2
5.13,64.2
5.131,64.2
5.132,63.8
5.133,64.2
5.134,63.8
5.135,64.0
5.136,64.0
5.1370000000000005,64.0
5.138,63.8
5.139,63.8
5.14,64.2
5.141,63.8
5.142,64.0
5.143,63.8
5.144,63.8
5.1450000000000005,63.8
5.146,64.0
5.147,64.0
5.148,63.8
5.149,64.0
5.15,64.0
5.151,64.0
5.152,63.8
5.1530000000000005,63.8
5.154,63.8
5.155,63.8
5.156,63.8
5.157,63.8
5.158,64.0
5.159,63.8
5.16,63.8
5.1610000000000005,63.8
5.162,63.6
5.163,63.8
5.164,63.8
5.165,63.6
5.166,63.6
5.167,63.8
5.168,63.8
5.1690000000000005,63.8
5.17,63.8
5.171,63.8
5.172,63.8
5.173,63.8
5.174,64.0
5.175,63.8
5.176,63.8
5.1770000000000005,63.8
5.178,63.8
5.179,63.8
5.18,63.6
5.181,63.6
5.182,63.8
5.183,63.8
5.184,63.8
5.1850000000000005,63.8
5.186,63.8
5.187,64.0
5.188,64.0
5.189,63.8
5.19,63.6
5.191,63.6
5.192,63.8
5.1930000000000005,63.8
5.194,64.0
5.195,64.0
5.196,63.8
5.197,63.8
5.198,63.8
5.199,64.0
5.2,63.8
5.2010000000000005,64.0
5.202,64.0
5.203,63.8
5.204,63.8
5.205,64.0
5.206,63.8
5.207,64.0
5.208,64.0
5.2090000000000005,63.8
5.21,63.8
5.211,64.0
5.212,63.8
5.213,64.0
5.214,64.2
5.215,63.8
5.216,63.8
5.2170000000000005,64.0
5.218,64.0
5.219,64.0
5.22,63.6
5.221,64.0
5.222,64.0
5.223,63.8
5.224,64.0
5.2250000000000005,64.0
5.226,64.0
5.227,64.2
5.228,64.2
5.229,64.2
5.23,64.0
5.231,64.0
5.232,63.8
5.2330000000000005,64.0
5.234,64.0
5.235,64.0
5.236,64.0
5.237,64.0
5.238,64.0
5.239,64.2
5.24,64.0
5.2410000000000005,64.0
5.242,64.2
5.243,64.2
5.244,64.0
5.245,64.4
5.246,64.2
5.247,64.0
5.248,64.2
5.249,64.4
5.25,64.0
5.251,64.0
5.252,64.2
5.253,64.2
5.2540000000000004,64.2
5.255,64.2
5.256,64.4
5.257,64.0
5.258,64.4
5.259,64.4
5.26,64.4
5.261,64.4
5.2620000000000005,64.4
5.263,64.6
5.264,64.6
5.265,64.2
5.266,64.4
5.267,64.4
5.268,64.4
5.269,64.2
5.2700000000000005,64.4
5.271,64.6
5.272,64.4
5.273,64.4
5.274,64.6
5.275,64.4
5.276,64.6
5.277,64.4
5.2780000000000005,64.6
5.279,64.2
5.28,64.2
5.281,64.6
5.282,64.6
5.283,64.4
5.284,64.4
5.285,64.6
5.2860000000000005,64.6
5.287,64.8
5.288,64.4
5.289,64.4
5.29,64.4
5.291,64.6
5.292,64.8
5.293,64.8
5.2940000000000005,64.8
5.295,64.8
5.296,64.8
5.297,64.6
5.298,64.8
5.299,64.8
5.3,64.6
5.301,65.0
5.3020000000000005,65.0
5.303,64.8
5.304,64.8
5.305,64.8
5.306,65.0
5.307,64.8
5.308,64.8
5.309,64.8
5.3100000000000005,64.8
5.311,65.2
5.312,65.0
5.313,65.0
5.314,64.8
5.315,65.0
5.316,65.0
5.317,65.0
5.3180000000000005,65.0
5.319,65.0
5.32,65.0
5.321,65.0
5.322,65.2
5.323,65.0
5.324,65.2
5.325,65.2
5.3260000000000005,65.2
5.327,65.2
5.328,65.2
5.329,65.4
5.33,65.0
5.331,65.2
5.332,65.2
5.333,65.4
5.3340000000000005,65.2
5.335,65.4
5.336,65.2
5.337,65.4
5.338,65.4
5.339,65.4
5.34,65.2
5.341,65.4
5.3420000000000005,65.2
5.343,65.4
5.344,65.6
5.345,65.4
5.346,65.4
5.347,65.8
5.348,65.8
5.349,65.6
5.3500000000000005,65.4
5.351,65.6
5.352,65.8
5.353,65.6
5.354,65.8
5.355,66.0
5.356,65.8
5.357,65.8
5.3580000000000005,65.8
5.359,65.6
5.36,65.8
5.361,65.8
5.362,65.8
5.363,66.0
5.364,65.8
5.365,66.0
5.3660000000000005,66.0
5.367,66.2
5.368,65.8
5.369,66.2
5.37,66.2
5.371,66.2
5.372,66.0
5.373,66.2
5.3740000000000006,66.2
5.375,66.2
5.376,66.2
5.377,66.2
5.378,66.2
5.3790000000000004,66.0
5.38,66.2
5.381,66.4
5.382,66.2
5.383,66.2
5.384,66.4
5.385,66.4
5.386,66.4
5.3870000000000005,66.4
5.388,66.4
5.389,66.4
5.39,66.6
5.391,66.4
5.392,66.4
5.393,66.8
5.394,66.8
5.3950000000000005,66.6
5.396,66.6
5.397,66.6
5.398,66.8
5.399,66.6
5.4,66.8
5.401,66.6
5.402,66.6
5.4030000000000005,66.8
5.404,67.0
5.405,66.8
5.406,66.8
5.407,67.0
5.408,67.0
5.409,67.0
5.41,67.2
5.4110000000000005,67.2
5.412,67.2
5.413,67.0
5.414,67.0
5.415,67.2
5.416,67.4
5.417,67.2
5.418,67.2
5.4190000000000005,67.4
5.42,67.2
5.421,67.2
5.422,67.4
5.423,67.4
5.424,67.4
5.425,67.4
5.426,67.4
5.4270000000000005,67.4
5.428,67.6
5.429,67.4
5.43,67.6
5.431,67.6
5.432,67.8
5.433,67.6
5.434,67.8
5.4350000000000005,67.6
5.436,67.8
5.437,67.8
5.438,67.8
5.439,67.8
5.44,68.0
5.441,67.8
5.442,68.0
5.4430000000000005,68.0
5.444,67.8
5.445,67.8
5.446,68.0
5.447,68.0
5.448,68.0
5.449,68.0
5.45,68.2
5.4510000000000005,68.0
5.452,68.2
5.453,68.2
5.454,68.0
5.455,68.4
5.456,68.2
5.457,68.4
5.458,68.4
5.4590000000000005,68.4
5.46,68.4
5.461,68.4
5.462,68.6
5.463,68.4
5.464,68.4
5.465,68.4
5.466,68.6
5.4670000000000005,68.6
5.468,68.8
5.469,68.6
5.47,68.8
5.471,68.8
5.472,68.6
5.473,68.8
5.474,68.6
5.4750000000000005,68.8
5.476,68.8
5.477,69.0
5.478,68.8
5.479,69.0
5.48,69.0
5.481,69.0
5.482,69.0
5.4830000000000005,69.0
5.484,69.0
5.485,69.2
5.486,69.2
5.487,69.2
5.488,69.2
5.489,69.4
5.49,69.4
5.4910000000000005,69.4
5.492,69.2
5.493,69.2
5.494,69.4
5.495,69.2
5.496,69.4
5.497,69.4
5.498,69.4
5.4990000000000006,69.6
5.5,69.4
5.501,69.4
5.502,69.6
5.503,69.8
5.5040000000000004,69.8
5.505,69.8
5.506,69.6
5.507,69.6
5.508,69.8
5.509,70.0
5.51,70.0
5.511,70.0
5.5120000000000005,69.8
5.513,69.8
5.514,69.8
5.515,70.0
5.516,69.8
5.517,69.8
5.518,70.0
5.519,70.0
5.5200000000000005,70.2
5.521,70.0
5.522,70.2
5.523,70.0
5.524,70.4
5.525,70.2
5.526,70.4
5.527,70.4
5.5280000000000005,70.2
5.529,70.4
5.53,70.2
5.531,70.4
5.532,70.4
5.533,70.4
5.534,70.4
5.535,70.4
5.5360000000000005,70.6
5.537,70.4
5.538,70.4
5.539,70.8
5.54,70.6
5.541,70.6
5.542,70.8
5.543,70.6
5.5440000000000005,70.6
5.545,70.8
5.546,70.8
5.547,70.6
5.548,70.6
5.549,70.8
5.55,70.8
5.551,70.6
5.5520000000000005,70.8
5.553,71.0
5.554,71.0
5.555,71.0
5.556,70.8
5.557,71.0
5.558,71.2
5.559,71.2
5.5600000000000005,71.0
5.561,71.0
5.562,71.0
5.563,71.0
5.564,71.0
5.565,71.4
5.566,71.2
5.567,71.2
5.5680000000000005,71.2
5.569,71.2
5.57,71.2
5.571,71.4
5.572,71.2
5.573,71.4
5.574,71.2
5.575,71.4
5.5760000000000005,71.2
5.577,71.2
5.578,71.6
5.579,71.6
5.58,71.4
5.581,71.4
5.582,71.4
5.583,71.6
5.5840000000000005,71.8
5.585,71.4
5.586,71.4
5.587,71.6
5.588,71.4
5.589,71.6
5.59,71.8
5.591,71.8
5.5920000000000005,71.8
5.593,72.0
5.594,71.8
5.595,72.0
5.596,72.0
5.597,71.8
5.598,72.0
5.599,71.8
5.6000000000000005,71.8
5.601,72.0
5.602,72.0
5.603,72.0
5.604,72.0
5.605,71.8
5.606,71.8
5.607,72.0
5.6080000000000005,72.0
5.609,72.0
5.61,72.2
5.611,72.2
5.612,72.0
5.613,72.0
5.614,72.0
5.615,72.0
5.6160000000000005,72.0
5.617,72.2
5.618,72.0
5.619,72.2
5.62,72.2
5.621,72.2
5.622,72.2
5.623,72.2
5.6240000000000006,72.2
5.625,72.4
5.626,72.4
5.627,72.2
5.628,72.4
5.6290000000000004,72.4
5.63,72.4
5.631,72.4
5.632,72.4
5.633,72.4
5.634,72.2
5.635,72.6
5.636,72.2
5.6370000000000005,72.4
5.638,72.4
5.639,72.4
5.64,72.4
5.641,72.6
5.642,72.4
5.643,72.2
5.644,72.6
5.6450000000000005,72.6
5.646,72.4
5.647,72.4
5.648,72.4
5.649,72.4
5.65,72.4
5.651,72.6
5.652,72.6
5.6530000000000005,72.6
5.654,72.6
5.655,72.6
5.656,72.8
5.657,72.6
5.658,72.6
5.659,72.6
5.66,72.6
5.6610000000000005,72.6
5.662,72.8
5.663,72.6
5.664,72.8
5.665,72.6
5.666,72.8
5.667,72.8
5.668,72.6
5.6690000000000005,72.8
5.67,72.8
5.671,72.8
5.672,73.0
5.673,72.8
5.674,72.8
5.675,72.6
5.676,72.8
5.6770000000000005,73.0
5.678,73.0
5.679,72.8
5.68,72.8
5.681,73.0
5.682,72.8
5.683,72.8
5.684,72.8
5.6850000000000005,72.8
5.686,72.8
5.687,73.0
5.688,73.0
5.689,73.0
5.69,72.8
5.691,73.0
5.692,73.0
5.6930000000000005,73.0
5.694,73.0
5.695,73.2
5.696,72.8
5.697,73.0
5.698,72.8
5.699,73.0
5.7,73.0
5.7010000000000005,72.8
5.702,73.0
5.703,73.0
5.704,73.0
5.705,72.8
5.706,73.0
5.707,72.8
5.708,73.0
5.7090000000000005,72.8
5.71,73.0
5.711,73.0
5.712,73.0
5.713,73.0
5.714,72.8
5.715,73.0
5.716,73.0
5.7170000000000005,73.0
5.718,72.8
5.719,72.8
5.72,73.0
5.721,73.0
5.722,73.0
5.723,73.0
5.724,73.0
5.7250000000000005,72.8
5.726,72.8
5.727,72.8
5.728,72.8
5.729,73.2
5.73,73.0
5.731,73.0
5.732,72.6
5.7330000000000005,72.8
5.734,73.0
5.735,73.0
5.736,72.8
5.737,72.8
5.738,72.8
5.739,72.8
5.74,73.0
5.7410000000000005,72.8
5.742,73.0
5.743,72.8
5.744,72.8
5.745,72.6
5.746,73.0
5.747,72.8
5.748,73.0
5.7490000000000006,72.8
5.75,73.0
5.751,72.8
5.752,72.6
5.753,72.8
5.7540000000000004,72.8
5.755,72.8
5.756,72.8
5.757000000000001,72.8
5.758,72.8
5.759,72.8
5.76,72.6
5.761,72.8
5.7620000000000005,72.8
5.763,72.6
5.764,72.6
5.765,72.8
5.766,72.8
5.767,72.8
5.768,72.6
5.769,72.6
5.7700000000000005,72.8
5.771,72.4
5.772,72.6
5.773,72.6
5.774,72.6
5.775,72.6
5.776,72.6
5.777,72.4
5.7780000000000005,72.6
5.779,72.6
5.78,72.6
5.781,72.4
5.782,72.6
5.783,72.4
5.784,72.6
5.785,72.4
5.7860000000000005,72.4
5.787,72.4
5.788,72.6
5.789,72.4
5.79,72.4
5.791,72.4
5.792,72.4
5.793,72.6
5.7940000000000005,72.6
5.795,72.2
5.796,72.4
5.797,72.2
5.798,72.2
5.799,72.2
5.8,72.2
5.801,72.4
5.8020000000000005,72.4
5.803,72.2
5.804,72.2
5.805,72.2
5.806,72.2
5.807,72.4
5.808,72.4
5.809,72.2
5.8100000000000005,72.2
5.811,72.2
5.812,72.4
5.813,72.0
5.814,72.0
5.815,72.2
5.816,72.0
5.817,72.0
5.8180000000000005,71.8
5.819,72.0
5.82,72.2
5.821,72.0
5.822,71.6
5.823,72.0
5.824,72.0
5.825,71.8
5.8260000000000005,72.0
5.827,71.6
5.828,72.0
5.829,72.0
5.83,72.0
5.831,71.8
5.832,71.8
5.833,72.0
5.8340000000000005,71.8
5.835,71.6
5.836,72.0
5.837,71.4
5.838,71.6
5.839,71.6
5.84,71.6
5.841,71.6
5.8420000000000005,71.8
5.843,71.8
5.844,71.4
5.845,71.4
5.846,71.4
5.847,71.6
5.848,71.4
5.849,71.6
5.8500000000000005,71.6
5.851,71.4
5.852,71.4
5.853,71.6
5.854,71.4
5.855,71.2
5.856,71.2
5.857,71.4
5.8580000000000005,71.4
5.859,71.0
5.86,71.2
5.861,71.4
5.862,71.4
5.863,71.0
5.864,71.2
5.865,71.2
5.8660000000000005,71.0
5.867,71.0
5.868,71.2
5.869,71.0
5.87,71.0
5.871,71.0
5.872,71.0
5.873,70.8
5.8740000000000006,70.8
5.875,71.0
5.876,71.0
5.877,70.8
5.878,70.8
5.8790000000000004,70.8
5.88,70.8
5.881,71.0
5.882000000000001,70.6
5.883,70.8
5.884,70.6
5.885,70.6
5.886,70.8
5.8870000000000005,70.8
5.888,70.8
5.889,70.6
5.89,70.6
5.891,70.6
5.892,70.6
5.893,70.6
5.894,70.6
5.8950000000000005,70.6
5.896,70.4
5.897,70.4
5.898,70.2
5.899,70.4
5.9,70.4
5.901,70.4
5.902,70.2
5.9030000000000005,70.2
5.904,70.2
5.905,70.2
5.906,70.2
5.907,70.4
5.908,70.0
5.909,69.8
5.91,70.2
5.9110000000000005,70.0
5.912,69.8
5.913,70.0
5.914,70.0
5.915,69.8
5.916,69.8
5.917,69.8
5.918,69.8
5.9190000000000005,69.8
5.92,69.8
5.921,69.8
5.922,69.8
5.923,69.8
5.924,69.6
5.925,69.8
5.926,69.6
5.9270000000000005,69.8
5.928,69.8
5.929,69.4
5.93,69.4
5.931,69.4
5.932,69.2
5.933,69.4
5.934,69.6
5.9350000000000005,69.2
5.936,69.2
5.937,69.4
5.938,69.2
5.939,69.2
5.94,69.2
5.941,69.2
5.942,69.0
5.9430000000000005,69.2
5.944,69.0
5.945,69.0
5.946,69.0
5.947,69.0
5.948,69.0
5.949,69.0
5.95,69.0
5.9510000000000005,68.8
5.952,69.0
5.953,68.8
5.954,68.8
5.955,68.8
5.956,68.8
5.957,68.8
5.958,68.8
5.9590000000000005,68.6
5.96,68.6
5.961,68.6
5.962,68.6
5.963,68.8
5.964,68.4
5.965,68.6
5.966,68.4
5.9670000000000005,68.4
5.968,68.4
5.969,68.4
5.97,68.4
5.971,68.2
5.972,68.4
5.973,68.4
5.974,68.2
5.9750000000000005,68.4
5.976,68.2
5.977,68.2
5.978,68.2
5.979,68.0
5.98,68.2
5.981,68.0
5.982,68.0
5.9830000000000005,68.0
5.984,68.0
5.985,68.0
5.986,67.8
5.987,67.8
5.988,67.8
5.989,68.0
5.99,68.0
5.9910000000000005,68.0
5.992,67.8
5.993,67.8
5.994,67.8
5.995,67.8
5.996,67.6
5.997,67.6
5.998,67.6
5.9990000000000006,67.4
6.0,67.6
6.001,67.4
6.002,67.4
6.003,67.4
6.0040000000000004,67.4
6.005,67.6
6.006,67.2
6.007000000000001,67.2
6.008,67.4
6.009,67.4
6.01,67.2
6.011,67.4
6.0120000000000005,67.2
6.013,67.2
6.014,67.2
6.015000000000001,67.2
6.016,67.0
6.017,67.0
6.018,67.2
6.019,67.2
6.0200000000000005,67.2
6.021,67.0
6.022,67.2
6.023,66.8
6.024,66.8
6.025,67.0
6.026,66.8
6.027,66.8
6.0280000000000005,66.8
6.029,66.4
6.03,66.6
6.031,66.6
6.032,66.6
6.033,66.6
6.034,66.8
6.035,66.6
6.0360000000000005,66.6
6.037,66.4
6.038,66.4
6.039,66.4
6.04,66.6
6.041,66.4
6.042,66.4
6.043,66.4
6.0440000000000005,66.2
6.045,66.4
6.046,66.4
6.047,66.4
6.048,66.2
6.049,66.0
6.05,66.4
6.051,66.2
6.0520000000000005,66.0
6.053,66.0
6.054,66.2
6.055,66.2
6.056,66.2
6.057,65.6
6.058,66.0
6.059,65.8
6.0600000000000005,66.0
6.061,65.8
6.062,66.0
6.063,65.8
6.064,66.0
6.065,65.6
6.066,65.8
6.067,65.8
6.0680000000000005,65.8
6.069,65.8
6.07,65.8
6.071,65.6
6.072,65.6
6.073,65.6
6.074,65.8
6.075,65.4
6.0760000000000005,65.4
6.077,65.8
6.078,65.4
6.079,65.8
6.08,65.4
6.081,65.6
6.082,65.2
6.083,65.2
6.0840000000000005,65.4
6.085,65.4
6.086,65.2
6.087,65.2
6.088,65.2
6.089,65.2
6.09,65.2
6.091,65.2
6.0920000000000005,65.0
6.093,65.2
6.094,65.2
6.095,65.0
6.096,65.2
6.097,65.0
6.098,65.0
6.099,65.0
6.1000000000000005,64.8
6.101,64.8
6.102,65.0
6.103,65.2
6.104,65.0
6.105,65.0
6.106,64.8
6.107,64.8
6.1080000000000005,64.8
6.109,65.0
6.11,64.8
6.111,64.6
6.112,65.0
6.113,64.8
6.114,64.6
6.115,64.6
6.1160000000000005,64.8
6.117,64.8
6.118,64.6
6.119,64.8
6.12,64.8
6.121,64.6
6.122,64.6
6.123,64.8
6.1240000000000006,64.4
6.125,64.6
6.126,64.6
6.127,64.6
6.128,64.2
6.1290000000000004,64.4
6.13,64.4
6.131,64.6
6.132000000000001,64.4
6.133,64.6
6.134,64.4
6.135,64.4
6.136,64.4
6.1370000000000005,64.6
6.138,64.2
6.139,64.4
6.140000000000001,64.4
6.141,64.2
6.142,64.4
6.143,64.2
6.144,64.4
6.1450000000000005,64.2
6.146,64.2
6.147,64.4
6.148,64.0
6.149,64.4
6.15,64.4
6.151,64.4
6.152,64.2
6.1530000000000005,64.4
6.154,64.2
6.155,64.4
6.156,64.0
6.157,64.2
6.158,64.2
6.159,64.4
6.16,64.2
6.1610000000000005,64.2
6.162,64.0
6.163,64.2
6.164,64.0
6.165,64.2
6.166,64.2
6.167,64.2
6.168,64.2
6.1690000000000005,64.2
6.17,64.0
6.171,64.0
6.172,64.2
6.173,64.4
6.174,64.0
6.175,64.0
6.176,64.2
6.1770000000000005,64.0
6.178,64.0
6.179,63.8
6.18,64.0
6.181,64.0
6.182,64.0
6.183,64.0
6.184,64.0
6.1850000000000005,63.8
6.186,64.0
6.187,64.0
6.188,64.0
6.189,64.2
6.19,64.0
6.191,63.8
6.192,64.0
6.1930000000000005,64.0
6.194,63.8
6.195,63.8
6.196,64.0
6.197,63.8
6.198,64.0
6.199,63.8
6.2,63.8
6.2010000000000005,64.0
6.202,63.8
6.203,64.0
6.204,64.2
6.205,63.8
6.206,63.8
6.207,64.0
6.208,63.8
6.2090000000000005,63.8
6.21,63.6
6.211,64.2
6.212,63.8
6.213,63.6
6.214,63.8
6.215,63.8
6.216,63.8
6.2170000000000005,64.0
6.218,63.8
6.219,64.0
6.22,63.8
6.221,63.6
6.222,63.8
6.223,63.6
6.224,63.8
6.2250000000000005,63.8
6.226,64.0
6.227,63.8
6.228,63.6
6.229,63.8
6.23,63.8
6.231,63.6
6.232,63.8
6.2330000000000005,63.8
6.234,63.8
6.235,63.8
6.236,63.8
6.237,63.8
6.238,64.0
6.239,63.8
6.24,63.6
6.2410000000000005,63.8
6.242,63.6
6.243,63.8
6.244,63.6
6.245,63.8
6.246,64.0
6.247,63.8
6.248,63.8
6.2490000000000006,64.0
6.25,64.0
6.251,64.2
6.252,63.8
6.253,63.8
6.2540000000000004,64.0
6.255,63.6
6.256,64.0
6.257000000000001,63.8
6.258,64.0
6.259,63.8
6.26,64.0
6.261,64.2
6.2620000000000005,63.8
6.263,63.8
6.264,63.8
6.265000000000001,64.0
6.266,64.0
6.267,63.8
6.268,64.0
6.269,63.8
6.2700000000000005,63.8
6.271,64.2
6.272,64.0
6.273,64.0
6.274,63.8
6.275,64.0
6.276,64.0
6.277,64.0
6.2780000000000005,63.8
6.279,63.8
6.28,64.0
6.281,63.8
6.282,63.8
6.283,64.2
6.284,64.0
6.285,64.0
6.2860000000000005,64.0
6.287,64.0
6.288,64.2
6.289,64.2
6.29,63.8
6.291,64.2
6.292,64.2
6.293,64.0
6.2940000000000005,64.0
6.295,64.2
6.296,64.2
6.297,64.2
6.298,64.0
6.299,64.0
6.3,64.0
6.301,64.2
6.3020000000000005,64.2
6.303,64.2
6.304,64.0
6.305,64.0
6.306,64.0
6.307,64.2
6.308,64.2
6.309,64.0
6.3100000000000005,64.2
6.311,64.2
6.312,64.2
6.313,64.2
6.314,64.2
6.315,64.2
6.316,64.2
6.317,64.2
6.3180000000000005,64.4
6.319,64.2
6.32,64.2
6.321,64.4
6.322,64.2
6.323,64.2
6.324,64.4
6.325,64.2
6.3260000000000005,64.0
6.327,64.2
6.328,64.4
6.329,64.2
6.33,64.2
6.331,64.4
6.332,64.2
6.333,64.2
6.3340000000000005,64.2
6.335,64.6
6.336,64.2
6.337,64.6
6.338,64.6
6.339,64.4
6.34,64.2
6.341,64.4
6.3420000000000005,64.6
6.343,64.4
6.344,64.6
6.345,64.4
6.346,64.4
6.347,64.6
6.348,64.6
6.349,64.6
6.3500000000000005,64.6
6.351,64.6
6.352,64.8
6.353,64.6
6.354,64.6
6.355,64.6
6.356,64.6
6.357,64.8
6.3580000000000005,64.8
6.359,64.8
6.36,64.8
6.361,64.8
6.362,64.8
6.363,64.8
6.364,64.8
6.365,65.0
6.3660000000000005,64.8
6.367,64.8
6.368,64.8
6.369,64.8
6.37,64.8
6.371,64.8
6.372,64.8
6.373,64.8
6.3740000000000006,64.8
6.375,65.0
6.376,65.0
6.377,64.8
6.378,65.0
6.3790000000000004,65.0
6.38,65.0
6.381,64.8
6.382000000000001,65.0
6.383,65.2
6.384,65.2
6.385,65.2
6.386,65.2
6.3870000000000005,65.2
6.388,65.2
6.389,65.0
6.390000000000001,65.2
6.391,65.0
6.392,65.2
6.393,65.2
6.394,65.4
6.3950000000000005,65.4
6.396,65.4
6.397,65.2
6.398000000000001,65.2
6.399,65.2
6.4,65.4
6.401,65.4
6.402,65.4
6.4030000000000005,65.4
6.404,65.4
6.405,65.4
6.406,65.4
6.407,65.2
6.408,65.4
6.409,65.4
6.41,65.4
6.4110000000000005,65.6
6.412,65.6
6.413,65.8
6.414,65.8
6.415,65.8
6.416,65.8
6.417,65.6
6.418,65.8
6.4190000000000005,65.6
6.42,66.0
6.421,65.6
6.422,66.0
6.423,65.8
6.424,66.0
6.425,65.8
6.426,65.8
6.4270000000000005,66.0
6.428,65.8
6.429,65.8
6.43,66.2
6.431,65.8
6.432,66.0
6.433,66.0
6.434,66.0
6.4350000000000005,66.0
6.436,66.2
6.437,66.2
6.438,66.0
6.439,66.0
6.44,66.2
6.441,66.2
6.442,66.2
6.4430000000000005,66.2
6.444,66.4
6.445,66.4
6.446,66.4
6.447,66.4
6.448,66.4
6.449,66.4
6.45,66.4
6.4510000000000005,66.6
6.452,66.4
6.453,66.6
6.454,66.6
6.455,66.4
6.456,66.6
6.457,66.6
6.458,66.6
6.4590000000000005,66.8
6.46,66.6
6.461,66.8
6.462,66.8
6.463,66.8
6.464,66.8
6.465,66.8
6.466,66.8
6.4670000000000005,66.8
6.468,66.8
6.469,66.8
6.47,66.8
6.471,67.0
6.472,67.0
6.473,67.0
6.474,67.2
6.4750000000000005,67.0
6.476,67.0
6.477,67.2
6.478,66.8
6.479,67.2
6.48,67.2
6.481,67.2
6.482,67.4
6.4830000000000005,67.4
6.484,67.4
6.485,67.4
6.486,67.4
6.487,67.4
6.488,67.2
6.489,67.4
6.49,67.6
6.4910000000000005,67.4
6.492,67.6
6.493,67.4
6.494,67.6
6.495,67.8
6.496,67.8
6.497,67.6
6.498,67.8
6.4990000000000006,67.8
6.5,67.8
6.501,67.8
6.502,67.8
6.503,67.8
6.5040000000000004,68.0
6.505,68.0
6.506,67.8
6.507000000000001,68.0
6.508,68.0
6.509,68.0
6.51,68.0
6.511,68.0
6.5120000000000005,68.0
6.513,68.2
6.514,68.2
6.515000000000001,68.2
6.516,68.4
6.517,68.4
6.518,68.4
6.519,68.4
6.5200000000000005,68.2
6.521,68.4
6.522,68.4
6.523000000000001,68.6
6.524,68.4
6.525,68.4
6.526,68.4
6.527,68.4
6.5280000000000005,68.6
6.529,68.4
6.53,68.8
6.531,68.8
6.532,68.6
6.533,68.6
6.534,68.8
6.535,68.8
6.5360000000000005,68.8
6.537,68.6
6.538,69.0
6.539,68.8
6.54,68.8
6.541,69.0
6.542,69.0
6.543,68.8
6.5440000000000005,69.0
6.545,69.2
6.546,69.0
6.547,69.0
6.548,69.2
6.549,69.2
6.55,69.2
6.551,69.2
6.5520000000000005,69.2
6.553,69.2
6.554,69.2
6.555,69.2
6.556,69.4
6.557,69.2
6.558,69.6
6.559,69.2
6.5600000000000005,69.4
6.561,69.6
6.562,69.4
6.563,69.8
6.564,69.6
6.565,69.6
6.566,69.6
6.567,69.6
6.5680000000000005,69.8
6.569,69.8
6.57,69.8
6.571,69.6
6.572,70.0
6.573,70.0
6.574,70.0
6.575,69.8
6.5760000000000005,70.2
6.577,70.0
6.578,70.0
6.579,70.0
6.58,70.4
6.581,70.2
6.582,70.0
6.583,70.0
6.5840000000000005,70.4
6.585,70.4
6.586,70.4
6.587,70.0
6.588,70.4
6.589,70.4
6.59,70.2
6.591,70.2
6.5920000000000005,70.4
6.593,70.4
6.594,70.4
6.595,70.2
6.596,70.2
6.597,70.4
6.598,70.6
6.599,70.6
6.6000000000000005,70.4
6.601,70.6
6.602,70.6
6.603,70.6
6.604,70.8
6.605,70.4
6.606,70.6
6.607,71.0
6.6080000000000005,70.6
6.609,70.8
6.61,70.6
6.611,70.8
6.612,70.8
6.613,71.0
6.614,70.8
6.615,70.8
6.6160000000000005,71.0
6.617,70.6
6.618,71.0
6.619,71.0
6.62,71.0
6.621,71.2
6.622,71.2
6.623,70.8
6.6240000000000006,71.0
6.625,71.2
6.626,71.2
6.627,70.8
6.628,71.2
6.6290000000000004,71.0
6.63,71.0
6.631,71.4
6.632000000000001,71.2
6.633,71.2
6.634,71.4
6.635,71.4
6.636,71.2
6.6370000000000005,71.2
6.638,71.2
6.639,71.4
6.640000000000001,71.4
6.641,71.6
6.642,71.4
6.643,71.6
6.644,71.6
6.6450000000000005,71.6
6.646,71.6
6.647,71.6
6.648000000000001,71.6
6.649,71.6
6.65,71.6
6.651,71.4
6.652,71.8
6.6530000000000005,71.6
6.654,71.6
6.655,71.8
6.656000000000001,72.0
6.657,72.0
6.658,72.0
6.659,71.6
6.66,72.0
6.6610000000000005,72.0
6.662,72.0
6.663,72.0
6.664,71.8
6.665,71.8
6.666,71.8
6.667,72.2
6.668,72.2
6.6690000000000005,72.0
6.67,72.0
6.671,72.0
6.672,72.2
6.673,72.2
6.674,72.0
6.675,72.0
6.676,72.0
6.6770000000000005,72.0
6.678,72.2
6.679,72.2
6.68,72.2
6.681,72.0
6.682,72.2
6.683,72.4
6.684,72.4
6.6850000000000005,72.2
6.686,72.0
6.687,72.4
6.688,72.2
6.689,72.2
6.69,72.4
6.691,72.2
6.692,72.4
6.6930000000000005,72.6
6.694,72.2
6.695,72.2
6.696,72.2
6.697,72.4
6.698,72.4
6.699,72.4
6.7,72.2
6.7010000000000005,72.4
6.702,72.4
6.703,72.6
6.704,72.4
6.705,72.4
6.706,72.4
6.707,72.4
6.708,72.4
6.7090000000000005,72.6
6.71,72.6
6.711,72.6
6.712,72.6
6.713,72.8
6.714,72.6
6.715,72.6
6.716,72.4
6.7170000000000005,72.6
6.718,72.6
6.719,72.6
6.72,72.6
6.721,72.4
6.722,72.6
6.723,72.8
6.724,72.6
6.7250000000000005,72.6
6.726,72.6
6.727,72.8
6.728,72.6
6.729,72.6
6.73,72.8
6.731,72.6
6.732,72.6
6.7330000000000005,73.0
6.734,73.0
6.735,72.6
6.736,72.6
6.737,72.6
6.738,72.8
6.739,72.8
6.74,72.8
6.7410000000000005,72.8
6.742,72.8
6.743,73.0
6.744,73.0
6.745,72.8
6.746,72.8
6.747,72.8
6.748,72.8
6.7490000000000006,73.0
6.75,72.6
6.751,73.0
6.752,73.0
6.753,73.0
6.7540000000000004,73.0
6.755,72.8
6.756,73.0
6.757000000000001,73.0
6.758,73.0
6.759,73.0
6.76,73.0
6.761,73.0
6.7620000000000005,73.0
6.763,72.8
6.764,72.8
6.765000000000001,72.8
6.766,73.0
6.767,73.2
6.768,72.8
6.769,73.0
6.7700000000000005,73.0
6.771,73.0
6.772,73.0
6.773000000000001,72.8
6.774,73.0
6.775,72.8
6.776,73.0
6.777,73.0
6.7780000000000005,73.0
6.779,73.0
6.78,73.0
6.781000000000001,73.2
6.782,73.2
6.783,73.0
6.784,73.0
6.785,72.8
6.7860000000000005,73.0
6.787,73.0
6.788,73.0
6.789,73.0
6.79,72.8
6.791,73.0
6.792,73.0
6.793,72.8
6.7940000000000005,72.8
6.795,72.8
6.796,73.2
6.797,73.0
6.798,73.0
6.799,72.8
6.8,73.0
6.801,72.8
6.8020000000000005,73.0
6.803,72.8
6.804,72.8
6.805,73.2
6.806,73.0
6.807,72.8
6.808,72.8
6.809,73.0
6.8100000000000005,72.8
6.811,72.8
6.812,72.8
6.813,73.0
6.814,72.8
6.815,72.6
6.816,72.8
6.817,72.8
6.8180000000000005,73.0
6.819,72.8
6.82,72.8
6.821,72.8
6.822,72.8
6.823,72.8
6.824,72.8
6.825,72.6
6.8260000000000005,72.8
6.827,72.8
6.828,72.8
6.829,72.8
6.83,72.6
6.831,72.6
6.832,72.6
6.833,72.6
6.8340000000000005,72.6
6.835,72.4
6.836,72.8
6.837,72.8
6.838,72.6
6.839,72.4
6.84,72.8
6.841,72.6
6.8420000000000005,72.6
6.843,72.6
6.844,72.6
6.845,72.6
6.846,72.4
6.847,72.4
6.848,72.6
6.849,72.4
6.8500000000000005,72.6
6.851,72.2
6.852,72.6
6.853,72.4
6.854,72.4
6.855,72.6
6.856,72.4
6.857,72.4
6.8580000000000005,72.6
6.859,72.4
6.86,72.6
6.861,72.4
6.862,72.2
6.863,72.2
6.864,72.2
6.865,72.4
6.8660000000000005,72.4
6.867,72.2
6.868,72.0
6.869,72.2
6.87,72.4
6.871,72.2
6.872,72.2
6.873,72.2
6.8740000000000006,72.0
6.875,72.2
6.876,72.2
6.877,72.4
6.878,72.0
6.8790000000000004,72.2
6.88,72.2
6.881,72.2
6.882000000000001,72.2
6.883,72.2
6.884,72.0
6.885,72.0
6.886,71.8
6.8870000000000005,71.8
6.888,72.0
6.889,72.0
6.890000000000001,72.0
6.891,72.0
6.892,71.8
6.893,71.8
6.894,71.8
6.8950000000000005,72.0
6.896,72.0
6.897,72.0
6.898000000000001,71.8
6.899,71.8
6.9,71.6
6.901,71.8
6.902,71.6
6.9030000000000005,71.6
6.904,71.6
6.905,71.4
6.906000000000001,71.4
6.907,71.4
6.908,71.6
6.909,71.8
6.91,71.4
6.9110000000000005,71.6
6.912,71.6
6.913,71.6
6.914,71.4
6.915,71.6
6.916,71.2
6.917,71.4
6.918,71.4
6.9190000000000005,71.2
6.92,71.0
6.921,71.4
6.922,71.2
6.923,71.2
6.924,71.0
6.925,71.4
6.926,71.0
6.9270000000000005,71.2
6.928,71.2
6.929,71.2
6.93,71.2
6.931,71.2
6.932,71.2
6.933,71.0
6.934,71.0
6.9350000000000005,71.0
6.936,71.0
6.937,71.0
6.938,71.0
6.939,71.0
6.94,70.8
6.941,70.8
6.942,70.8
6.9430000000000005,71.0
6.944,71.0
6.945,71.0
6.946,70.8
6.947,70.8
6.948,70.6
6.949,70.8
6.95,70.6
6.9510000000000005,70.8
6.952,70.6
6.953,70.6
6.954,70.6
6.955,70.4
6.956,70.4
6.957,70.4
6.958,70.6
6.9590000000000005,70.4
6.96,70.4
6.961,70.4
6.962,70.4
6.963,70.2
6.964,70.4
6.965,70.4
6.966,70.2
6.9670000000000005,70.0
6.968,70.4
6.969,70.4
6.97,70.4
6.971,69.8
6.972,70.2
6.973,70.0
6.974,70.0
6.9750000000000005,70.2
6.976,70.2
6.977,69.8
6.978,69.8
6.979,69.8
6.98,69.8
6.981,70.0
6.982,70.0
6.9830000000000005,69.6
6.984,69.8
6.985,69.6
6.986,69.8
6.987,69.6
6.988,69.8
6.989,69.6
6.99,69.6
6.9910000000000005,69.4
6.992,69.4
6.993,69.6
6.994,69.6
6.995,69.4
6.996,69.4
6.997,69.2
6.998,69.4
6.9990000000000006,69.4
7.0,69.2
7.001,69.4
7.002,69.2
7.003,69.2
7.0040000000000004,69.2
7.005,69.2
7.006,69.2
7.007000000000001,69.0
7.008,69.0
7.009,69.0
7.01,69.0
7.011,69.0
7.0120000000000005,69.2
7.013,68.8
7.014,69.0
7.015000000000001,68.8
7.016,68.8
7.017,69.0
7.018,69.0
7.019,68.8
7.0200000000000005,68.8
7.021,68.8
7.022,68.8
7.023000000000001,68.6
7.024,68.8
7.025,68.6
7.026,68.6
7.027,68.6
7.0280000000000005,68.4
7.029,68.4
7.03,68.6
7.031000000000001,68.6
7.032,68.4
7.033,68.4
7.034,68.2
7.035,68.4
7.0360000000000005,68.2
7.037,68.4
7.038,68.2
7.039000000000001,68.2
7.04,68.4
7.041,68.4
7.042,68.4
7.043,68.2
7.0440000000000005,68.0
7.045,68.0
7.046,68.0
7.047,68.0
7.048,68.0
7.049,67.8
7.05,68.0
7.051,67.8
7.0520000000000005,67.8
7.053,68.0
7.054,67.8
7.055,67.8
7.056,67.8
7.057,67.8
7.058,67.6
7.059,67.6
7.0600000000000005,67.6
7.061,67.6
7.062,67.6
7.063,67.4
7.064,67.6
7.065,67.4
7.066,67.4
7.067,67.4
7.0680000000000005,67.4
7.069,67.4
7.07,67.2
7.071,67.4
7.072,67.2
7.073,67.2
7.074,67.2
7.075,67.2
7.0760000000000005,67.2
7.077,67.2
7.078,67.0
7.079,67.0
7.08,67.0
7.081,67.0
7.082,67.0
7.083,67.0
7.0840000000000005,66.8
7.085,66.8
7.086,67.0
7.087,66.8
7.088,66.8
7.089,66.8
7.09,66.8
7.091,66.8
7.0920000000000005,66.6
7.093,66.6
7.094,66.6
7.095,66.8
7.096,66.6
7.097,66.6
7.098,66.6
7.099,66.8
7.1000000000000005,66.6
7.101,66.6
7.102,66.4
7.103,66.4
7.104,66.6
7.105,66.4
7.106,66.4
7.107,66.4
7.1080000000000005,66.4
7.109,66.2
7.11,66.4
7.111,66.4
7.112,66.0
7.113,66.2
7.114,66.2
7.115,66.2
7.1160000000000005,66.0
7.117,66.2
7.118,65.8
7.119,66.0
7.12,66.2
7.121,65.8
7.122,65.8
7.123,66.0
7.1240000000000006,65.8
7.125,65.8
7.126,66.0
7.127,65.8
7.128,65.6
7.1290000000000004,65.8
7.13,65.8
7.131,65.6
7.132000000000001,65.6
7.133,65.8
7.134,65.8
7.135,65.6
7.136,65.4
7.1370000000000005,65.8
7.138,65.6
7.139,65.8
7.140000000000001,65.4
7.141,65.4
7.142,65.6
7.143,65.4
7.144,65.4
7.1450000000000005,65.2
7.146,65.2
7.147,65.4
7.148000000000001,65.4
7.149,65.4
7.15,65.4
7.151,65.2
7.152,65.4
7.1530000000000005,65.4
7.154,65.0
7.155,65.2
7.156000000000001,65.2
7.157,65.2
7.158,65.2
7.159,65.0
7.16,65.0
7.1610000000000005,65.0
7.162,65.2
7.163,65.0
7.164000000000001,65.0
7.165,65.0
7.166,65.0
7.167,65.0
7.168,65.0
7.1690000000000005,64.8
7.17,64.8
7.171,64.8
7.172,64.8
7.173,64.8
7.174,65.0
7.175,64.8
7.176,64.8
7.1770000000000005,64.8
7.178,65.0
7.179,65.0
7.18,64.8
7.181,64.6
7.182,64.8
7.183,64.8
7.184,64.6
7.1850000000000005,64.6
7.186,64.6
7.187,64.6
7.188,65.0
7.189,64.6
7.19,64.4
7.191,64.4
7.192,64.6
7.1930000000000005,64.8
7.194,64.6
7.195,64.4
7.196,64.4
7.197,64.4
7.198,64.4
7.199,64.4
7.2,64.4
7.2010000000000005,64.4
7.202,64.2
7.203,64.2
7.204,64.2
7.205,64.4
7.206,64.4
7.207,64.4
7.208,64.4
7.2090000000000005,64.6
7.21,64.2
7.211,64.2
7.212,64.2
7.213,64.2
7.214,64.2
7.215,64.4
7.216,64.6
7.2170000000000005,64.2
7.218,64.2
7.219,64.4
7.22,64.0
7.221,64.0
7.222,64.2
7.223,64.0
7.224,64.4
7.2250000000000005,64.2
7.226,64.2
7.227,64.2
7.228,64.2
7.229,64.2
7.23,64.0
7.231,64.2
7.232,64.0
7.2330000000000005,64.2
7.234,64.0
7.235,64.2
7.236,64.2
7.237,64.0
7.238,64.2
7.239,64.2
7.24,63.8
7.2410000000000005,64.2
7.242,64.2
7.243,64.2
7.244,64.2
7.245,63.8
7.246,64.2
7.247,64.0
7.248,64.2
7.2490000000000006,63.8
7.25,64.2
7.251,64.2
7.252,64.2
7.253,64.0
7.2540000000000004,64.0
7.255,64.0
7.256,64.2
7.257000000000001,64.0
7.258,64.0
7.259,63.8
7.26,63.8
7.261,64.2
7.2620000000000005,63.8
7.263,63.8
7.264,63.8
7.265000000000001,64.0
7.266,63.8
7.267,63.8
7.268,64.0
7.269,63.8
7.2700000000000005,63.8
7.271,63.8
7.272,63.8
7.273000000000001,64.2
7.274,64.2
7.275,63.8
7.276,63.8
7.277,63.8
7.2780000000000005,63.8
7.279,63.8
7.28,63.8
7.281000000000001,64.0
7.282,63.8
7.283,63.8
7.284,63.6
7.285,63.8
7.2860000000000005,63.8
7.287,64.0
7.288,63.8
7.289000000000001,63.6
7.29,63.6
7.291,63.8
7.292,64.0
7.293,63.8
7.2940000000000005,63.6
7.295,63.8
7.296,63.8
7.297,63.8
7.298,63.8
7.299,63.8
7.3,64.0
7.301,63.8
7.3020000000000005,63.6
7.303,63.6
7.304,63.8
7.305,63.8
7.306,63.8
7.307,63.8
7.308,64.0
7.309,63.8
7.3100000000000005,63.8
7.311,63.8
7.312,63.8
7.313,64.0
7.314,64.0
7.315,63.8
7.316,63.8
7.317,63.8
7.3180000000000005,64.0
7.319,63.8
7.32,63.8
7.321,64.0
7.322,63.6
7.323,64.0
7.324,63.8
7.325,64.0
7.3260000000000005,63.8
7.327,64.2
7.328,64.0
7.329,63.6
7.33,63.8
7.331,63.8
7.332,64.2
7.333,64.0
7.3340000000000005,64.0
7.335,64.0
7.336,64.0
7.337,64.0
7.338,64.0
7.339,63.8
7.34,64.0
7.341,64.2
7.3420000000000005,64.0
7.343,64.2
7.344,63.8
7.345,64.0
7.346,64.0
7.347,64.2
7.348,64.0
7.349,64.2
7.3500000000000005,64.2
7.351,64.2
7.352,64.0
7.353,64.0
7.354,64.2
7.355,64.2
7.356,64.0
7.357,64.0
7.3580000000000005,64.0
7.359,64.0
7.36,64.2
7.361,64.2
7.362,64.0
7.363,64.0
7.364,64.2
7.365,64.2
7.3660000000000005,64.2
7.367,64.2
7.368,64.2
7.369,64.0
7.37,64.2
7.371,64.2
7.372,64.2
7.373,64.2
7.3740000000000006,64.2
7.375,64.2
7.376,64.2
7.377,64.4
7.378,64.2
7.3790000000000004,64.2
7.38,64.2
7.381,64.2
7.382000000000001,64.2
7.383,64.2
7.384,64.2
7.385,64.4
7.386,64.4
7.3870000000000005,64.0
7.388,64.2
7.389,64.2
7.390000000000001,64.4
7.391,64.4
7.392,64.4
7.393,64.2
7.394,64.2
7.3950000000000005,64.2
7.396,64.4
7.397,64.4
7.398000000000001,64.2
7.399,64.4
7.4,64.4
7.401,64.4
7.402,64.4
7.4030000000000005,64.4
7.404,64.4
7.405,64.6
7.406000000000001,64.6
7.407,64.6
7.408,64.6
7.409,64.6
7.41,64.6
7.4110000000000005,64.6
7.412,64.8
7.413,64.6
7.414000000000001,64.6
7.415,64.4
7.416,64.4
7.417,64.8
7.418,64.6
7.4190000000000005,64.6
7.42,64.6
7.421,64.6
7.422000000000001,64.6
7.423,64.8
7.424,64.6
7.425,64.8
7.426,65.0
7.4270000000000005,64.8
7.428,64.6
7.429,64.8
7.43,64.8
7.431,64.8
7.432,64.8
7.433,65.0
7.434,64.8
7.4350000000000005,64.8
7.436,65.0
7.437,64.8
7.438,64.8
7.439,65.0
7.44,65.0
7.441,65.0
7.442,65.2
7.4430000000000005,64.8
7.444,65.2
7.445,64.8
7.446,65.0
7.447,65.0
7.448,65.0
7.449,65.2
7.45,65.2
7.4510000000000005,65.0
7.452,65.2
7.453,65.0
7.454,65.2
7.455,65.2
7.456,65.2
7.457,65.0
7.458,65.2
7.4590000000000005,65.4
7.46,65.2
7.461,65.4
7.462,65.2
7.463,65.4
7.464,65.4
7.465,65.4
7.466,65.2
7.4670000000000005,65.4
7.468,65.2
7.469,65.6
7.47,65.6
7.471,65.6
7.472,65.8
7.473,65.4
7.474,65.8
7.4750000000000005,65.8
7.476,65.8
7.477,65.6
7.478,65.6
7.479,65.8
7.48,65.6
7.481,65.6
7.482,65.6
7.4830000000000005,65.8
7.484,65.8
7.485,65.8
7.486,65.6
7.487,65.8
7.488,65.8
7.489,66.0
7.49,65.8
7.4910000000000005,65.8
7.492,65.8
7.493,66.0
7.494,66.2
7.495,66.0
7.496,66.0
7.497,66.2
7.498,66.2
7.4990000000000006,66.0
7.5,66.2
7.501,66.0
7.502,66.2
7.503,66.2
7.5040000000000004,66.4
7.505,66.4
7.506,66.4
7.507000000000001,66.2
7.508,66.2
7.509,66.4
7.51,66.4
7.511,66.6
7.5120000000000005,66.6
7.513,66.4
7.514,66.4
7.515000000000001,66.6
7.516,66.4
7.517,66.6
7.518,66.6
7.519,66.6
7.5200000000000005,66.6
7.521,66.6
7.522,66.6
7.523000000000001,66.6
7.524,66.8
7.525,66.8
7.526,66.8
7.527,66.6
7.5280000000000005,66.8
7.529,66.8
7.53,66.8
7.531000000000001,66.8
7.532,67.0
7.533,67.2
7.534,67.0
7.535,67.0
7.5360000000000005,67.0
7.537,67.2
7.538,67.0
7.539000000000001,67.2
7.54,67.0
7.541,67.2
7.542,67.2
7.543,67.2
7.5440000000000005,67.2
7.545,67.2
7.546,67.4
7.547000000000001,67.4
7.548,67.4
7.549,67.4
7.55,67.2
7.551,67.4
7.5520000000000005,67.6
7.553,67.6
7.554,67.4
7.555,67.6
7.556,67.4
7.557,67.6
7.558,67.8
7.559,67.6
7.5600000000000005,67.6
7.561,67.8
7.562,67.8
7.563,67.8
7.564,67.8
7.565,67.6
7.566,67.8
7.567,67.8
7.5680000000000005,67.8
7.569,68.0
7.57,68.0
7.571,68.0
7.572,68.0
7.573,68.0
7.574,68.2
7.575,68.2
7.5760000000000005,68.2
7.577,68.2
7.578,68.4
7.579,68.0
7.58,68.2
7.581,68.4
7.582,68.2
7.583,68.2
7.5840000000000005,68.2
7.585,68.4
7.586,68.4
7.587,68.4
7.588,68.6
7.589,68.6
7.59,68.6
7.591,68.4
7.5920000000000005,68.6
7.593,68.8
7.594,68.6
7.595,68.8
7.596,68.8
7.597,68.6
7.598,68.8
7.599,68.8
7.6000000000000005,68.8
7.601,69.0
7.602,68.8
7.603,69.2
7.604,68.8
7.605,68.8
7.606,69.0
7.607,68.8
7.6080000000000005,69.2
7.609,69.0
7.61,69.0
7.611,69.2
7.612,69.2
7.613,69.2
7.614,69.2
7.615,69.2
7.6160000000000005,69.4
7.617,69.2
7.618,69.4
7.619,69.4
7.62,69.4
7.621,69.4
7.622,69.6
7.623,69.6
7.6240000000000006,69.6
7.625,69.8
7.626,69.4
7.627,69.6
7.628,69.6
7.6290000000000004,69.4
7.63,69.6
7.631,69.8
7.632000000000001,69.8
7.633,69.8
7.634,69.8
7.635,70.0
7.636,69.8
7.6370000000000005,70.0
7.638,70.0
7.639,70.0
7.640000000000001,70.0
7.641,70.0
7.642,70.0
7.643,70.0
7.644,70.4
7.6450000000000005,70.2
7.646,70.2
7.647,70.2
7.648000000000001,70.4
7.649,70.2
7.65,70.4
7.651,70.4
7.652,70.4
7.6530000000000005,70.6
7.654,70.2
7.655,70.4
7.656000000000001,70.2
7.657,70.4
7.658,70.6
7.659,70.4
7.66,70.4
7.6610000000000005,70.4
7.662,70.4
7.663,70.8
7.664000000000001,70.6
7.665,70.6
7.666,70.4
7.667,70.6
7.668,70.8
7.6690000000000005,70.8
7.67,70.6
7.671,70.6
7.672000000000001,70.8
7.673,70.8
7.674,71.0
7.675,70.8
7.676,70.6
7.6770000000000005,70.8
7.678,70.8
7.679,71.0
7.68,70.8
7.681,71.0
7.682,71.0
7.683,71.0
7.684,70.8
7.6850000000000005,71.0
7.686,71.0
7.687,71.2
7.688,71.2
7.689,71.2
7.69,71.0
7.691,71.2
7.692,71.0
7.6930000000000005,71.4
7.694,71.2
7.695,71.2
7.696,71.4
7.697,71.2
7.698,71.4
7.699,71.4
7.7,71.4
7.7010000000000005,71.4
7.702,71.4
7.703,71.6
7.704,71.6
7.705,71.4
7.706,71.2
7.707,71.6
7.708,71.6
7.7090000000000005,71.6
7.71,71.6
7.711,71.6
7.712,71.4
7.713,71.4
7.714,72.0
7.715,71.6
7.716,71.6
7.7170000000000005,71.6
7.718,71.8
7.719,71.8
7.72,71.8
7.721,72.0
7.722,71.8
7.723,72.0
7.724,72.0
7.7250000000000005,71.8
7.726,71.8
7.727,71.8
7.728,72.0
7.729,71.8
7.73,72.0
7.731,72.0
7.732,72.0
7.7330000000000005,72.0
7.734,72.2
7.735,72.0
7.736,72.0
7.737,72.2
7.738,72.0
7.739,72.0
7.74,72.0
7.7410000000000005,72.0
7.742,72.0
7.743,72.4
7.744,72.2
7.745,72.2
7.746,72.2
7.747,72.2
7.748,72.0
7.7490000000000006,72.4
7.75,72.2
7.751,72.4
7.752,72.4
7.753,72.4
7.7540000000000004,72.2
7.755,72.2
7.756,72.4
7.757000000000001,72.4
7.758,72.4
7.759,72.2
7.76,72.4
7.761,72.6
7.7620000000000005,72.4
7.763,72.6
7.764,72.4
7.765000000000001,72.4
7.766,72.2
7.767,72.6
7.768,72.6
7.769,72.6
7.7700000000000005,72.4
7.771,72.4
7.772,72.4
7.773000000000001,72.6
7.774,72.6
7.775,72.4
7.776,72.6
7.777,72.6
7.7780000000000005,72.4
7.779,72.6
7.78,72.8
7.781000000000001,72.6
7.782,72.8
7.783,72.6
7.784,72.6
7.785,72.6
7.7860000000000005,72.6
7.787,72.8
7.788,72.8
7.789000000000001,72.8
7.79,72.6
7.791,72.6
7.792,72.8
7.793,72.8
7.7940000000000005,72.6
7.795,73.0
7.796,72.8
7.797000000000001,72.8
7.798,72.8
7.799,73.0
7.8,72.8
7.801,73.0
7.8020000000000005,72.8
7.803,72.8
7.804,73.0
7.805000000000001,72.6
7.806,72.8
7.807,72.8
7.808,72.8
7.809,73.0
7.8100000000000005,72.8
7.811,72.8
7.812,72.8
7.813,72.8
7.814,72.8
7.815,72.8
7.816,72.8
7.817,72.8
7.8180000000000005,73.0
7.819,73.0
7.82,73.0
7.821,72.8
7.822,73.0
7.823,73.0
7.824,72.8
7.825,72.8
7.8260000000000005,72.8
7.827,73.0
7.828,73.0
7.829,73.0
7.83,72.8
7.831,73.0
7.832,73.0
7.833,73.0
7.8340000000000005,73.0
7.835,73.0
7.836,73.0
7.837,73.0
7.838,73.0
7.839,72.8
7.84,73.2
7.841,73.0
7.8420000000000005,73.2
7.843,72.8
7.844,73.0
7.845,73.0
7.846,72.8
7.847,72.8
7.848,73.0
7.849,72.8
7.8500000000000005,73.0
7.851,73.0
7.852,72.8
7.853,72.8
7.854,72.8
7.855,73.0
7.856,73.0
7.857,72.8
7.8580000000000005,73.0
7.859,72.8
7.86,73.0
7.861,73.0
7.862,72.8
7.863,72.8
7.864,72.6
7.865,72.8
7.8660000000000005,73.0
7.867,72.8
7.868,72.8
7.869,72.6
7.87,73.0
7.871,72.8
7.872,72.8
7.873,72.8
7.8740000000000006,72.8
7.875,72.8
7.876,72.8
7.877,73.0
7.878,72.8
7.8790000000000004,72.8
7.88,72.8
7.881,72.6
7.882000000000001,72.6
7.883,72.6
7.884,72.6
7.885,72.8
7.886,72.8
7.8870000000000005,73.0
7.888,72.6
7.889,72.6
7.890000000000001,72.6
7.891,72.8
7.892,72.8
7.893,72.6
7.894,72.8
7.8950000000000005,72.6
7.896,72.6
7.897,72.4
7.898000000000001,72.6
7.899,72.8
7.9,72.6
7.901,72.6
7.902,72.6
7.9030000000000005,72.6
7.904,72.4
7.905,72.6
7.906000000000001,72.4
7.907,72.6
7.908,72.6
7.909,72.6
7.91,72.4
7.9110000000000005,72.4
7.912,72.6
7.913,72.4
7.914000000000001,72.4
7.915,72.4
7.916,72.4
7.917,72.4
7.918,72.4
7.9190000000000005,72.6
7.92,72.4
7.921,72.2
7.922000000000001,72.4
7.923,72.4
7.924,72.2
7.925,72.2
7.926,72.4
7.9270000000000005,72.2
7.928,72.4
7.929,72.4
7.930000000000001,72.2
7.931,72.2
7.932,72.4
7.933,72.0
7.934,72.2
7.9350000000000005,72.4
7.936,72.2
7.937,72.2
7.938,72.0
7.939,72.0
7.94,72.0
7.941,72.2
7.942,72.0
7.9430000000000005,72.0
7.944,72.0
7.945,72.0
7.946,72.0
7.947,72.0
7.948,72.0
7.949,72.0
7.95,72.0
7.9510000000000005,71.8
7.952,71.6
7.953,71.8
7.954,72.0
7.955,72.0
7.956,71.8
7.957,71.8
7.958,72.0
7.9590000000000005,72.0
7.96,71.8
7.961,71.8
7.962,71.8
7.963,71.8
7.964,71.8
7.965,72.0
7.966,71.8
7.9670000000000005,71.6
7.968,71.4
7.969,71.6
7.97,71.8
7.971,71.6
7.972,71.6
7.973,71.4
7.974,71.6
7.9750000000000005,71.4
7.976,71.4
7.977,71.4
7.978,71.4
7.979,71.2
7.98,71.4
7.981,71.4
7.982,71.2
7.9830000000000005,71.2
7.984,71.4
7.985,71.4
7.986,71.4
7.987,71.4
7.988,71.2
7.989,71.2
7.99,71.4
7.9910000000000005,71.0
7.992,71.2
7.993,71.2
7.994,71.0
7.995,70.8
7.996,71.0
7.997,71.0
7.998,71.0
7.9990000000000006,71.0
8.0,71.2
8.001,71.0
8.002,70.8
8.003,70.8
8.004,70.8
8.005,70.8
8.006,70.8
8.007,70.8
8.008000000000001,70.8
8.009,70.4
8.01,70.6
8.011000000000001,70.8
8.012,70.6
8.013,70.6
8.014,70.8
8.015,70.4
8.016,70.6
8.017,70.6
8.018,70.6
8.019,70.4
8.02,70.6
8.021,70.6
8.022,70.4
8.023,70.2
8.024000000000001,70.2
8.025,70.4
8.026,70.2
8.027000000000001,70.4
8.028,70.4
8.029,70.0
8.03,70.4
8.031,70.0
8.032,70.2
8.033,70.0
8.034,70.2
8.035,70.0
8.036,70.0
8.037,69.8
8.038,70.0
8.039,69.8
8.040000000000001,70.0
8.041,70.0
8.042,70.0
8.043000000000001,69.8
8.044,70.0
8.045,69.8
8.046,70.0
8.047,69.8
8.048,69.8
8.049,69.8
8.05,69.8
8.051,69.6
8.052,69.4
8.053,69.4
8.054,69.6
8.055,69.4
8.056000000000001,69.4
8.057,69.4
8.058,69.4
8.059000000000001,69.4
8.06,69.2
8.061,69.2
8.062,69.4
8.063,69.2
8.064,69.2
8.065,69.2
8.066,69.2
8.067,69.0
8.068,69.2
8.069,69.2
8.07,69.0
8.071,69.0
8.072000000000001,69.0
8.073,69.0
8.074,69.2
8.075,69.0
8.076,68.8
8.077,68.8
8.078,68.8
8.079,69.0
8.08,68.8
8.081,68.8
8.082,68.6
8.083,68.8
8.084,68.8
8.085,68.6
8.086,68.8
8.087,68.6
8.088000000000001,68.8
8.089,68.6
8.09,68.4
8.091,68.6
8.092,68.6
8.093,68.4
8.094,68.6
8.095,68.4
8.096,68.2
8.097,68.2
8.098,68.4
8.099,68.0
8.1,68.2
8.101,68.4
8.102,68.2
8.103,68.4
8.104000000000001,68.2
8.105,68.2
8.106,68.2
8.107,68.0
8.108,67.8
8.109,68.0
8.11,68.0
8.111,68.0
8.112,67.8
8.113,67.8
8.114,67.8
8.115,67.8
8.116,67.8
8.117,67.8
8.118,67.8
8.119,67.8
8.120000000000001,67.6
8.121,67.6
8.122,67.6
8.123,67.8
8.124,67.6
8.125,67.6
8.126,67.4
8.127,67.4
8.128,67.6
8.129,67.4
8.13,67.4
8.131,67.4
8.132,67.4
8.133000000000001,67.4
8.134,67.2
8.135,67.2
8.136000000000001,67.2
8.137,67.4
8.138,67.2
8.139,67.2
8.14,67.0
8.141,67.2
8.142,67.2
8.143,67.0
8.144,67.0
8.145,67.0
8.146,67.0
8.147,67.0
8.148,67.0
8.149000000000001,67.0
8.15,66.6
8.151,66.6
8.152000000000001,66.8
8.153,66.8
8.154,66.6
8.155,66.8
8.156,66.6
8.157,66.6
8.158,66.8
8.159,66.6
8.16,66.6
8.161,66.6
8.162,66.4
8.163,66.6
8.164,66.6
8.165000000000001,66.4
8.166,66.4
8.167,66.4
8.168000000000001,66.4
8.169,66.4
8.17,66.4
8.171,66.4
8.172,66.2
8.173,66.4
8.174,66.0
8.175,66.2
8.176,66.2
8.177,66.2
8.178,66.2
8.179,66.2
8.18,66.0
8.181000000000001,65.8
8.182,66.0
8.183,66.0
8.184000000000001,66.2
8.185,65.8
8.186,65.8
8.187,65.8
8.188,66.0
8.189,65.8
8.19,65.8
8.191,65.8
8.192,65.6
8.193,65.6
8.194,65.6
8.195,65.8
8.196,65.8
8.197000000000001,65.8
8.198,65.8
8.199,65.8
8.2,65.8
8.201,65.2
8.202,65.4
8.203,65.4
8.204,65.4
8.205,65.8
8.206,65.6
8.207,65.2
8.208,65.2
8.209,65.4
8.21,65.2
8.211,65.2
8.212,65.4
8.213000000000001,65.0
8.214,65.2
8.215,65.4
8.216,65.4
8.217,65.0
8.218,65.2
8.219,65.2
8.22,65.0
8.221,65.0
8.222,65.0
8.223,65.0
8.224,65.0
8.225,65.0
8.226,65.2
8.227,65.0
8.228,65.0
8.229000000000001,65.0
8.23,64.6
8.231,65.2
8.232,65.0
8.233,65.0
8.234,65.0
8.235,64.8
8.236,64.8
8.237,64.8
8.238,64.8
8.239,64.8
8.24,64.8
8.241,64.8
8.242,64.8
8.243,64.6
8.244,64.6
8.245000000000001,64.8
8.246,65.0
8.247,64.6
8.248,64.6
8.249,64.6
8.25,64.6
8.251,64.8
8.252,64.6
8.253,64.4
8.254,64.6
8.255,64.6
8.256,64.4
8.257,64.6
8.258000000000001,64.6
8.259,64.4
8.26,64.4
8.261000000000001,64.4
8.262,64.4
8.263,64.6
8.264,64.4
8.265,64.4
8.266,64.4
8.267,64.6
8.268,64.4
8.269,64.4
8.27,64.2
8.271,64.4
8.272,64.4
8.273,64.2
8.274000000000001,64.4
8.275,64.4
8.276,64.2
8.277000000000001,64.2
8.278,64.0
8.279,64.2
8.28,64.2
8.281,64.2
8.282,64.4
8.283,64.2
8.284,64.0
8.285,64.2
8.286,64.0
8.287,64.2
8.288,64.2
8.289,64.2
8.290000000000001,64.4
8.291,64.2
8.292,64.0
8.293000000000001,64.0
8.294,64.2
8.295,64.2
8.296,64.2
8.297,64.2
8.298,64.2
8.299,64.2
8.3,64.0
8.301,64.2
8.302,64.0
8.303,64.2
8.304,64.2
8.305,64.2
8.306000000000001,64.0
8.307,63.8
8.308,64.0
8.309000000000001,63.8
8.31,64.0
8.311,64.0
8.312,63.8
8.313,63.8
8.314,64.2
8.315,64.2
8.316,63.8
8.317,64.0
8.318,64.0
8.319,63.8
8.32,64.0
8.321,63.8
8.322000000000001,64.0
8.323,63.8
8.324,64.0
8.325,63.8
8.326,64.0
8.327,64.0
8.328,64.0
8.329,63.8
8.33,64.0
8.331,64.0
8.332,64.2
8.333,63.8
8.334,64.0
8.335,64.0
8.336,64.0
8.337,64.0
8.338000000000001,63.8
8.339,63.8
8.34,63.8
8.341,63.8
8.342,63.6
8.343,63.8
8.344,63.8
8.345,64.0
8.346,63.8
8.347,63.8
8.348,63.8
8.349,63.8
8.35,63.8
8.351,63.8
8.352,63.8
8.353,63.8
8.354000000000001,64.0
8.355,63.8
8.356,64.0
8.357,63.6
8.358,64.0
8.359,64.0
8.36,63.8
8.361,63.8
8.362,63.8
8.363,63.6
8.364,63.8
8.365,63.8
8.366,63.8
8.367,63.8
8.368,63.8
8.369,63.8
8.370000000000001,63.8
8.371,63.6
8.372,63.8
8.373,63.8
8.374,64.2
8.375,63.8
8.376,63.8
8.377,63.8
8.378,63.8
8.379,63.8
8.38,64.0
8.381,64.0
8.382,63.8
8.383000000000001,63.8
8.384,63.8
8.385,63.6
8.386000000000001,63.8
8.387,64.0
8.388,63.8
8.389,64.0
8.39,63.8
8.391,64.0
8.392,63.6
8.393,64.0
8.394,64.0
8.395,64.0
8.396,64.2
8.397,64.2
8.398,64.2
8.399000000000001,63.8
8.4,64.0
8.401,63.8
8.402000000000001,64.0
8.403,64.0
8.404,64.0
8.405,63.8
8.406,64.0
8.407,64.0
8.408,64.0
8.409,63.6
8.41,64.0
8.411,64.0
8.412,63.8
8.413,64.0
8.414,64.0
8.415000000000001,64.0
8.416,64.2
8.417,64.2
8.418000000000001,64.0
8.419,64.0
8.42,64.0
8.421,64.2
8.422,64.0
8.423,64.0
8.424,64.2
8.425,64.0
8.426,64.2
8.427,64.2
8.428,64.2
8.429,64.2
8.43,64.2
8.431000000000001,64.2
8.432,64.2
8.433,64.2
8.434000000000001,64.2
8.435,64.2
8.436,64.2
8.437,64.2
8.438,64.2
8.439,64.4
8.44,64.2
8.441,64.2
8.442,64.2
8.443,64.4
8.444,64.2
8.445,64.2
8.446,64.2
8.447000000000001,64.2
8.448,64.0
8.449,64.4
8.45,64.4
8.451,64.0
8.452,64.2
8.453,64.2
8.454,64.4
8.455,64.4
8.456,64.2
8.457,64.4
8.458,64.2
8.459,64.4
8.46,64.2
8.461,64.2
8.462,64.6
8.463000000000001,64.4
8.464,64.4
8.465,64.6
8.466,64.6
8.467,64.8
8.468,64.4
8.469,64.4
8.47,64.4
8.471,64.6
8.472,64.4
8.473,64.6
8.474,64.6
8.475,64.6
8.476,64.6
8.477,64.6
8.478,64.6
8.479000000000001,64.8
8.48,64.8
8.481,64.8
8.482,64.6
8.483,64.6
8.484,64.6
8.485,64.6
8.486,64.8
8.487,64.8
8.488,65.0
8.489,64.8
8.49,64.6
8.491,64.6
8.492,64.8
8.493,64.8
8.494,64.8
8.495000000000001,65.0
8.496,64.8
8.497,65.0
8.498,64.6
8.499,65.0
8.5,65.0
8.501,65.0
8.502,65.0
8.503,65.0
8.504,64.8
8.505,64.8
8.506,65.2
8.507,64.8
8.508000000000001,64.8
8.509,65.2
8.51,65.0
8.511000000000001,65.0
8.512,65.0
8.513,65.0
8.514,65.0
8.515,65.2
8.516,65.4
8.517,65.0
8.518,65.2
8.519,65.2
8.52,65.4
8.521,65.2
8.522,65.4
8.523,65.2
8.524000000000001,65.2
8.525,65.6
8.526,65.6
8.527000000000001,65.2
8.528,65.4
8.529,65.6
8.53,65.4
8.531,65.4
8.532,65.6
8.533,65.6
8.534,65.4
8.535,65.6
8.536,65.6
8.537,65.8
8.538,65.4
8.539,65.8
8.540000000000001,65.6
8.541,65.6
8.542,65.8
8.543000000000001,65.8
8.544,65.8
8.545,65.6
8.546,65.6
8.547,65.8
8.548,65.8
8.549,65.8
8.55,65.8
8.551,65.8
8.552,66.0
8.553,65.8
8.554,66.0
8.555,65.8
8.556000000000001,66.0
8.557,66.0
8.558,66.0
8.559000000000001,66.2
8.56,66.0
8.561,66.0
8.562,66.0
8.563,66.2
8.564,66.2
8.565,66.2
8.566,66.2
8.567,66.2
8.568,66.2
8.569,66.2
8.57,66.2
8.571,66.2
8.572000000000001,66.4
8.573,66.4
8.574,66.4
8.575000000000001,66.4
8.576,66.2
8.577,66.4
8.578,66.6
8.579,66.8
8.58,66.6
8.581,66.6
8.582,66.6
8.583,66.8
8.584,66.6
8.585,66.8
8.586,66.8
8.587,66.8
8.588000000000001,66.6
8.589,66.8
8.59,67.0
8.591,67.0
8.592,66.8
8.593,67.0
8.594,66.8
8.595,66.8
8.596,67.0
8.597,66.8
8.598,67.2
8.599,67.0
8.6,66.8
8.601,67.4
8.602,67.2
8.603,67.2
8.604000000000001,67.2
8.605,67.2
8.606,67.4
8.607,67.4
8.608,67.4
8.609,67.2
8.61,67.4
8.611,67.4
8.612,67.4
8.613,67.4
8.614,67.4
8.615,67.4
8.616,67.6
8.617,67.6
8.618,67.6
8.619,67.6
8.620000000000001,67.6
8.621,67.6
8.622,67.6
8.623,67.8
8.624,67.6
8.625,67.8
8.626,67.8
8.627,68.0
8.628,68.0
8.629,67.8
8.63,67.8
8.631,67.8
8.632,67.8
8.633000000000001,68.0
8.634,68.0
8.635,68.2
8.636000000000001,68.2
8.637,68.2
8.638,68.2
8.639,68.2
8.64,68.0
8.641,68.2
8.642,68.4
8.643,68.2
8.644,68.2
8.645,68.2
8.646,68.2
8.647,68.4
8.648,68.6
8.649000000000001,68.4
8.65,68.6
8.651,68.4
8.652000000000001,68.6
8.653,68.6
8.654,68.6
8.655,68.8
8.656,68.6
8.657,68.6
8.658,68.8
8.659,68.8
8.66,68.6
8.661,68.6
8.662,68.6
8.663,68.8
8.664,68.8
8.665000000000001,68.8
8.666,69.0
8.667,69.0
8.668000000000001,69.0
8.669,68.8
8.67,69.0
8.671,69.2
8.672,69.0
8.673,69.2
8.674,69.2
8.675,69.0
8.676,69.2
8.677,69.2
8.678,69.2
8.679,69.2
8.68,69.2
8.681000000000001,69.4
8.682,69.4
8.683,69.4
8.684000000000001,69.4
8.685,69.6
8.686,69.2
8.687,69.4
8.688,69.4
8.689,69.6
8.69,69.8
8.691,69.8
8.692,69.8
8.693,69.8
8.694,69.6
8.695,69.8
8.696,69.6
8.697000000000001,70.0
8.698,69.6
8.699,70.0
8.700000000000001,69.8
8.701,70.0
8.702,69.8
8.703,70.0
8.704,70.0
8.705,70.0
8.706,70.0
8.707,70.4
8.708,70.2
8.709,70.0
8.71,70.2
8.711,70.2
8.712,70.0
8.713000000000001,70.4
8.714,70.4
8.715,70.2
8.716,70.4
8.717,70.4
8.718,70.4
8.719,70.4
8.72,70.4
8.721,70.4
8.722,70.4
8.723,70.6
8.724,70.4
8.725,70.6
8.726,70.6
8.727,70.6
8.728,70.6
8.729000000000001,70.6
8.73,70.6
8.731,70.8
8.732,70.6
8.733,71.0
8.734,70.6
8.735,70.8
8.736,71.0
8.737,70.8
8.738,70.8
8.739,70.8
8.74,70.8
8.741,71.0
8.742,71.0
8.743,71.0
8.744,70.8
8.745000000000001,70.8
8.746,71.0
8.747,71.0
8.748,71.0
8.749,71.2
8.75,71.2
8.751,71.2
8.752,71.4
8.753,71.0
8.754,71.0
8.755,71.2
8.756,71.4
8.757,71.2
8.758000000000001,71.6
8.759,71.4
8.76,71.2
8.761000000000001,71.2
8.762,71.4
8.763,71.4
8.764,71.4
8.765,71.4
8.766,71.6
8.767,71.4
8.768,71.2
8.769,71.6
8.77,71.6
8.771,71.6
8.772,71.8
8.773,71.6
8.774000000000001,71.6
8.775,71.4
8.776,71.6
8.777000000000001,72.0
8.778,72.0
8.779,71.4
8.78,71.6
8.781,71.6
8.782,72.0
8.783,71.8
8.784,71.8
8.785,72.0
8.786,71.8
8.787,71.8
8.788,71.8
8.789,72.0
8.790000000000001,72.0
8.791,72.0
8.792,72.0
8.793000000000001,72.0
8.794,72.0
8.795,71.8
8.796,72.0
8.797,72.0
8.798,72.2
8.799,72.0
8.8,72.0
8.801,72.0
8.802,72.0
8.803,72.2
8.804,72.0
8.805,72.2
8.806000000000001,72.4
8.807,72.2
8.808,72.2
8.809000000000001,72.2
8.81,72.2
8.811,72.2
8.812,72.2
8.813,72.2
8.814,72.2
8.815,72.2
8.816,72.2
8.817,72.4
8.818,72.2
8.819,72.4
8.82,72.4
8.821,72.2
8.822000000000001,72.4
8.823,72.4
8.824,72.4
8.825000000000001,72.4
8.826,72.6
8.827,72.4
8.828,72.4
8.829,72.2
8.83,72.4
8.831,72.4
8.832,72.8
8.833,72.6
8.834,72.6
8.835,72.6
8.836,72.6
8.837,72.6
8.838000000000001,72.6
8.839,72.8
8.84,72.6
8.841,72.8
8.842,72.6
8.843,72.4
8.844,72.6
8.845,72.8
8.846,72.6
8.847,72.6
8.848,72.6
8.849,72.6
8.85,72.8
8.851,72.8
8.852,72.8
8.853,72.8
8.854000000000001,72.6
8.855,72.8
8.856,72.8
8.857,72.8
8.858,72.8
8.859,73.0
8.86,72.8
8.861,72.8
8.862,72.8
8.863,73.0
8.864,72.8
8.865,73.0
8.866,72.8
8.867,72.6
8.868,72.8
8.869,73.0
8.870000000000001,73.0
8.871,73.0
8.872,72.8
8.873,72.8
8.874,72.8
8.875,73.0
8.876,73.0
8.877,73.0
8.878,72.8
8.879,73.0
8.88,73.0
8.881,73.0
8.882,72.8
8.883000000000001,72.8
8.884,73.0
8.885,72.8
8.886000000000001,72.8
8.887,72.8
8.888,73.0
8.889,73.0
8.89,73.0
8.891,73.0
8.892,73.0
8.893,73.0
8.894,72.8
8.895,72.8
8.896,72.8
8.897,73.0
8.898,73.2
8.899000000000001,73.0
8.9,72.6
8.901,72.8
8.902000000000001,72.8
8.903,73.0
8.904,72.8
8.905,72.8
8.906,73.0
8.907,73.0
8.908,73.0
8.909,72.8
8.91,73.0
8.911,73.0
8.912,73.0
8.913,72.8
8.914,73.0
8.915000000000001,72.8
8.916,73.0
8.917,73.0
8.918000000000001,73.0
8.919,73.0
8.92,72.8
8.921,72.8
8.922,73.0
8.923,72.8
8.924,72.8
8.925,72.8
8.926,72.8
8.927,73.0
8.928,73.0
8.929,73.0
8.93,73.0
8.931000000000001,73.0
8.932,72.6
8.933,73.0
8.934000000000001,73.0
8.935,73.0
8.936,72.8
8.937,73.0
8.938,73.0
8.939,73.0
8.94,73.0
8.941,72.8
8.942,72.8
8.943,72.6
8.944,72.8
8.945,73.0
8.946,72.6
8.947000000000001,72.8
8.948,72.8
8.949,72.8
8.950000000000001,72.8
8.951,72.6
8.952,72.6
8.953,72.8
8.954,72.6
8.955,72.8
8.956,72.8
8.957,72.8
8.958,72.6
8.959,72.8
8.96,72.6
8.961,72.6
8.962,72.6
8.963000000000001,72.4
8.964,72.6
8.965,72.6
8.966,72.6
8.967,72.6
8.968,72.6
8.969,72.6
8.97,72.6
8.971,72.6
8.972,72.4
8.973,72.6
8.974,72.6
8.975,72.6
8.976,72.4
8.977,72.6
8.978,72.4
8.979000000000001,72.4
8.98,72.4
8.981,72.4
8.982,72.4
8.983,72.4
8.984,72.4
8.985,72.4
8.986,72.2
8.987,72.4
8.988,72.2
8.989,72.4
8.99,72.4
8.991,72.2
8.992,72.2
8.993,72.2
8.994,72.4
8.995000000000001,72.2
8.996,72.2
8.997,72.2
8.998,72.2
8.999,72.0
9.0,72.0
9.001,72.2
9.002,72.0
9.003,72.0
9.004,72.2
9.005,72.0
9.006,72.0
9.007,72.0
9.008000000000001,72.0
9.009,71.8
9.01,72.0
9.011000000000001,72.0
9.012,71.8
9.013,72.0
9.014,71.8
9.015,72.0
9.016,72.0
9.017,72.0
9.018,72.0
9.019,71.8
9.02,71.8
9.021,72.0
9.022,71.8
9.023,72.0
9.024000000000001,71.6
9.025,72.0
9.026,72.0
9.027000000000001,71.6
9.028,71.6
9.029,71.4
9.03,71.8
9.031,71.8
9.032,71.6
9.033,71.6
9.034,71.8
9.035,71.6
9.036,71.6
9.037,71.6
9.038,71.6
9.039,71.6
9.040000000000001,71.4
9.041,71.4
9.042,71.2
9.043000000000001,71.4
9.044,71.4
9.045,71.2
9.046,71.4
9.047,71.4
9.048,71.2
9.049,71.4
9.05,71.0
9.051,71.0
9.052,71.2
9.053,71.0
9.054,71.2
9.055,71.0
9.056000000000001,71.0
9.057,71.0
9.058,71.0
9.059000000000001,71.2
9.06,71.2
9.061,71.0
9.062,70.8
9.063,71.0
9.064,70.8
9.065,71.0
9.066,70.6
9.067,71.0
9.068,70.8
9.069,70.8
9.07,70.8
9.071,70.8
9.072000000000001,70.6
9.073,70.6
9.074,70.8
9.075000000000001,70.8
9.076,70.8
9.077,70.6
9.078,70.6
9.079,70.6
9.08,70.6
9.081,70.4
9.082,70.6
9.083,70.6
9.084,70.4
9.085,70.2
9.086,70.4
9.087,70.4
9.088000000000001,70.4
9.089,70.4
9.09,70.4
9.091,70.4
9.092,70.2
9.093,70.2
9.094,70.0
9.095,70.4
9.096,70.2
9.097,70.2
9.098,70.0
9.099,69.8
9.1,70.0
9.101,70.0
9.102,69.8
9.103,69.8
9.104000000000001,69.8
9.105,70.0
9.106,69.8
9.107,70.0
9.108,69.8
9.109,69.8
9.11,70.0
9.111,69.6
9.112,69.8
9.113,69.8
9.114,69.8
9.115,69.6
9.116,69.6
9.117,69.8
9.118,69.6
9.119,69.6
9.120000000000001,69.6
9.121,69.4
9.122,69.4
9.123,69.4
9.124,69.4
9.125,69.2
9.126,69.2
9.127,69.2
9.128,69.2
9.129,69.2
9.13,69.2
9.131,69.2
9.132,69.2
9.133000000000001,69.0
9.134,69.2
9.135,69.0
9.136000000000001,69.0
9.137,68.8
9.138,69.0
9.139,68.8
9.14,68.8
9.141,68.8
9.142,68.8
9.143,69.0
9.144,68.8
9.145,68.8
9.146,68.6
9.147,68.6
9.148,68.6
9.149000000000001,68.6
9.15,68.8
9.151,68.6
9.152000000000001,68.4
9.153,68.4
9.154,68.6
9.155,68.4
9.156,68.4
9.157,68.4
9.158,68.4
9.159,68.4
9.16,68.4
9.161,68.4
9.162,68.4
9.163,68.2
9.164,68.2
9.165000000000001,68.2
9.166,68.2
9.167,68.2
9.168000000000001,68.2
9.169,68.0
9.17,68.0
9.171,68.0
9.172,67.8
9.173,68.2
9.174,67.8
9.175,68.0
9.176,68.0
9.177,67.8
9.178,67.8
9.179,67.8
9.18,67.8
9.181000000000001,67.6
9.182,67.6
9.183,67.8
9.184000000000001,67.6
9.185,67.6
9.186,67.6
9.187,67.4
9.188,67.4
9.189,67.4
9.19,67.6
9.191,67.4
9.192,67.2
9.193,67.4
9.194,67.4
9.195,67.2
9.196,67.4
9.197000000000001,67.2
9.198,67.2
9.199,67.4
9.200000000000001,67.2
9.201,67.2
9.202,67.2
9.203,67.0
9.204,67.0
9.205,67.0
9.206,67.2
9.207,66.8
9.208,67.2
9.209,67.0
9.21,67.0
9.211,67.0
9.212,67.0
9.213000000000001,67.0
9.214,66.8
9.215,66.8
9.216000000000001,66.8
9.217,66.8
9.218,66.8
9.219,66.8
9.22,66.6
9.221,66.6
9.222,66.8
9.223,66.6
9.224,66.6
9.225,66.6
9.226,66.6
9.227,66.4
9.228,66.4
9.229000000000001,66.6
9.23,66.4
9.231,66.4
9.232,66.4
9.233,66.2
9.234,66.4
9.235,66.2
9.236,66.4
9.237,66.4
9.238,66.2
9.239,66.0
9.24,66.0
9.241,66.2
9.242,66.2
9.243,66.0
9.244,66.0
9.245000000000001,66.2
9.246,66.2
9.247,66.0
9.248,65.8
9.249,66.0
9.25,65.8
9.251,65.8
9.252,65.8
9.253,65.8
9.254,65.8
9.255,65.8
9.256,65.8
9.257,65.8
9.258000000000001,65.8
9.259,65.6
9.26,65.6
9.261000000000001,65.8
9.262,65.4
9.263,65.6
9.264,65.4
9.265,65.8
9.266,65.6
9.267,65.4
9.268,65.6
9.269,65.4
9.27,65.2
9.271,65.4
9.272,65.4
9.273,65.2
9.274000000000001,65.2
9.275,65.2
9.276,65.2
9.277000000000001,65.2
9.278,65.2
9.279,65.4
9.28,65.2
9.281,65.2
9.282,65.2
9.283,65.2
9.284,65.2
9.285,65.0
9.286,65.0
9.287,65.2
9.288,65.0
9.289,65.0
9.290000000000001,64.8
9.291,65.0
9.292,64.8
9.293000000000001,64.8
9.294,64.8
9.295,65.0
9.296,64.8
9.297,64.8
9.298,64.8
9.299,64.8
9.3,64.6
9.301,64.8
9.302,64.6
9.303,64.8
9.304,64.8
9.305,64.8
9.306000000000001,64.6
9.307,64.8
9.308,64.6
9.309000000000001,64.4
9.31,64.6
9.311,64.6
9.312,64.6
9.313,64.4
9.314,64.6
9.315,64.8
9.316,64.6
9.317,64.4
9.318,64.4
9.319,64.4
9.32,64.6
9.321,64.6
9.322000000000001,64.6
9.323,64.4
9.324,64.4
9.325000000000001,64.4
9.326,64.2
9.327,64.4
9.328,64.4
9.329,64.6
9.33,64.2
9.331,64.4
9.332,64.2
9.333,64.4
9.334,64.4
9.335,64.4
9.336,64.4
9.337,64.2
9.338000000000001,64.2
9.339,64.2
9.34,64.4
9.341000000000001,64.4
9.342,64.2
9.343,64.2
9.344,64.2
9.345,64.4
9.346,64.4
9.347,64.0
9.348,64.0
9.349,64.0
9.35,64.0
9.351,64.0
9.352,64.2
9.353,64.2
9.354000000000001,64.2
9.355,64.2
9.356,64.4
9.357,64.2
9.358,64.4
9.359,64.0
9.36,64.2
9.361,64.2
9.362,64.2
9.363,64.0
9.364,64.2
9.365,64.2
9.366,64.2
9.367,64.0
9.368,64.0
9.369,64.0
9.370000000000001,64.2
9.371,64.2
9.372,64.0
9.373,64.0
9.374,64.0
9.375,63.8
9.376,64.2
9.377,64.0
9.378,64.0
9.379,64.0
9.38,64.0
9.381,63.6
9.382,63.8
9.383000000000001,64.0
9.384,64.0
9.385,64.2
9.386000000000001,64.0
9.387,63.8
9.388,64.0
9.389,63.8
9.39,64.2
9.391,63.8
9.392,64.0
9.393,63.8
9.394,64.0
9.395,63.8
9.396,63.8
9.397,64.0
9.398,63.8
9.399000000000001,63.8
9.4,64.0
9.401,63.8
9.402000000000001,63.8
9.403,64.0
9.404,63.8
9.405,63.8
9.406,64.0
9.407,64.0
9.408,64.0
9.409,63.8
9.41,63.6
9.411,64.2
9.412,63.8
9.413,64.0
9.414,64.0
9.415000000000001,63.8
9.416,64.0
9.417,64.0
9.418000000000001,63.8
9.419,64.0
9.42,64.0
9.421,63.8
9.422,63.8
9.423,63.6
9.424,63.8
9.425,63.6
9.426,63.8
9.427,63.8
9.428,63.8
9.429,63.8
9.43,64.0
9.431000000000001,63.8
9.432,64.0
9.433,63.8
9.434000000000001,64.0
9.435,64.0
9.436,63.8
9.437,63.8
9.438,63.8
9.439,64.0
9.44,64.0
9.441,63.8
9.442,63.8
9.443,64.0
9.444,63.8
9.445,64.0
9.446,63.6
9.447000000000001,64.0
9.448,63.8
9.449,64.0
9.450000000000001,63.8
9.451,64.0
9.452,64.0
9.453,63.8
9.454,64.0
9.455,64.2
9.456,64.0
9.457,64.0
9.458,63.8
9.459,64.0
9.46,63.8
9.461,64.0
9.462,63.8
9.463000000000001,63.8
9.464,63.8
9.465,64.2
9.466000000000001,64.0
9.467,63.8
9.468,63.8
9.469,64.0
9.47,64.2
9.471,64.0
9.472,64.0
9.473,63.8
9.474,63.8
9.475,64.0
9.476,64.0
9.477,63.8
9.478,64.0
9.479000000000001,64.0
9.48,64.0
9.481,64.0
9.482,64.2
9.483,64.2
9.484,64.2
9.485,64.2
9.486,64.2
9.487,64.0
9.488,64.0
9.489,64.2
9.49,64.0
9.491,64.2
9.492,64.2
9.493,64.2
9.494,64.0
9.495000000000001,64.0
9.496,64.2
9.497,64.0
9.498,64.0
9.499,64.4
9.5,64.0
9.501,64.2
9.502,64.4
9.503,64.2
9.504,64.4
9.505,64.4
9.506,64.2
9.507,64.2
9.508000000000001,64.4
9.509,64.2
9.51,64.4
9.511000000000001,64.2
9.512,64.2
9.513,64.4
9.514,64.2
9.515,64.4
9.516,64.4
9.517,64.2
9.518,64.4
9.519,64.4
9.52,64.4
9.521,64.4
9.522,64.4
9.523,64.4
9.524000000000001,64.4
9.525,64.6
9.526,64.4
9.527000000000001,64.6
9.528,64.6
9.529,64.6
9.53,64.4
9.531,64.6
9.532,64.4
9.533,64.6
9.534,64.4
9.535,64.4
9.536,64.6
9.537,64.4
9.538,64.8
9.539,64.8
9.540000000000001,64.2
9.541,64.6
9.542,64.6
9.543000000000001,64.8
9.544,64.6
9.545,64.4
9.546,64.6
9.547,64.6
9.548,64.6
9.549,64.8
9.55,64.8
9.551,64.6
9.552,64.8
9.553,64.8
9.554,64.8
9.555,64.8
9.556000000000001,64.8
9.557,64.8
9.558,65.0
9.559000000000001,64.8
9.56,65.0
9.561,64.8
9.562,65.0
9.563,65.0
9.564,65.0
9.565,65.0
9.566,64.8
9.567,65.0
9.568,65.0
9.569,65.0
9.57,65.0
9.571,65.0
9.572000000000001,65.0
9.573,65.2
9.574,65.2
9.575000000000001,65.2
9.576,65.2
9.577,65.2
9.578,65.2
9.579,65.2
9.58,65.0
9.581,65.4
9.582,65.2
9.583,65.4
9.584,65.4
9.585,65.2
9.586,65.4
9.587,65.2
9.588000000000001,65.4
9.589,65.4
9.59,65.4
9.591000000000001,65.6
9.592,65.4
9.593,65.4
9.594,65.6
9.595,65.8
9.596,65.4
9.597,65.6
9.598,65.6
9.599,65.6
9.6,65.6
9.601,65.6
9.602,65.6
9.603,65.6
9.604000000000001,65.8
9.605,65.8
9.606,65.6
9.607,66.0
9.608,65.8
9.609,66.0
9.61,65.6
9.611,65.8
9.612,66.0
9.613,65.8
9.614,65.8
9.615,66.0
9.616,66.0
9.617,66.0
9.618,66.0
9.619,66.0
9.620000000000001,66.2
9.621,65.8
9.622,66.2
9.623,66.2
9.624,66.2
9.625,66.0
9.626,66.2
9.627,66.2
9.628,66.2
9.629,66.0
9.63,66.2
9.631,66.2
9.632,66.2
9.633000000000001,66.4
9.634,66.4
9.635,66.2
9.636000000000001,66.2
9.637,66.4
9.638,66.4
9.639,66.2
9.64,66.4
9.641,66.6
9.642,66.6
9.643,66.6
9.644,66.6
9.645,66.6
9.646,66.4
9.647,66.6
9.648,66.8
9.649000000000001,66.8
9.65,66.6
9.651,66.8
9.652000000000001,66.8
9.653,66.8
9.654,66.8
9.655,67.0
9.656,67.0
9.657,67.0
9.658,67.0
9.659,67.0
9.66,67.0
9.661,67.0
9.662,67.0
9.663,67.2
9.664,67.2
9.665000000000001,67.2
9.666,67.2
9.667,67.2
9.668000000000001,67.2
9.669,67.2
9.67,67.4
9.671,67.2
9.672,67.4
9.673,67.2
9.674,67.4
9.675,67.4
9.676,67.4
9.677,67.4
9.678,67.6
9.679,67.6
9.68,67.6
9.681000000000001,67.4
9.682,67.6
9.683,67.6
9.684000000000001,67.8
9.685,67.8
9.686,67.8
9.687,67.8
9.688,67.8
9.689,67.8
9.69,67.8
9.691,67.8
9.692,67.8
9.693,68.0
9.694,68.0
9.695,68.0
9.696,67.8
9.697000000000001,68.0
9.698,68.2
9.699,68.2
9.700000000000001,68.0
9.701,68.2
9.702,68.2
9.703,68.4
9.704,68.4
9.705,68.0
9.706,68.2
9.707,68.4
9.708,68.4
9.709,68.4
9.71,68.4
9.711,68.6
9.712,68.4
9.713000000000001,68.6
9.714,68.6
9.715,68.6
9.716000000000001,68.6
9.717,68.6
9.718,68.6
9.719,68.8
9.72,68.4
9.721,68.8
9.722,68.8
9.723,68.8
9.724,68.8
9.725,69.0
9.726,68.8
9.727,68.8
9.728,69.0
9.729000000000001,69.0
9.73,68.8
9.731,69.0
9.732,69.0
9.733,69.0
9.734,69.0
9.735,69.0
9.736,69.2
9.737,69.2
9.738,69.2
9.739,69.2
9.74,69.4
9.741,69.2
9.742,69.4
9.743,69.2
9.744,69.2
9.745000000000001,69.4
9.746,69.2
9.747,69.6
9.748,69.6
9.749,69.4
9.75,69.6
9.751,69.6
9.752,69.8
9.753,69.8
9.754,69.8
9.755,69.6
9.756,69.6
9.757,69.6
9.758000000000001,69.8
9.759,69.8
9.76,70.0
9.761000000000001,69.8
9.762,70.0
9.763,69.6
9.764,70.0
9.765,70.0
9.766,70.0
9.767,70.4
9.768,70.2
9.769,70.0
9.77,70.0
9.771,70.0
9.772,70.4
9.773,70.0
9.774000000000001,70.0
9.775,70.4
9.776,70.2
9.777000000000001,70.2
9.778,70.2
9.779,70.4
9.78,70.4
9.781,70.4
9.782,70.4
9.783,70.4
9.784,70.4
9.785,70.4
9.786,70.4
9.787,70.6
9.788,70.4
9.789,70.6
9.790000000000001,70.8
9.791,70.6
9.792,70.8
9.793000000000001,70.8
9.794,70.8
9.795,70.6
9.796,70.8
9.797,70.6
9.798,70.8
9.799,71.0
9.8,70.8
9.801,70.8
9.802,71.0
9.803,71.0
9.804,70.8
9.805,70.8
9.806000000000001,70.8
9.807,71.0
9.808,71.0
9.809000000000001,71.0
9.81,71.2
9.811,71.2
9.812,71.2
9.813,71.2
9.814,71.0
9.815,71.2
9.816,71.2
9.817,71.2
9.818,71.2
9.819,71.0
9.82,71.2
9.821,71.4
9.822000000000001,71.2
9.823,71.2
9.824,71.4
9.825000000000001,71.4
9.826,71.4
9.827,71.2
9.828,71.6
9.829,71.6
9.83,71.6
9.831,71.6
9.832,71.4
9.833,71.4
9.834,71.4
9.835,71.6
9.836,71.8
9.837,71.6
9.838000000000001,71.6
9.839,72.0
9.84,71.8
9.841000000000001,72.0
9.842,71.8
9.843,71.8
9.844,71.8
9.845,71.8
9.846,72.0
9.847,72.0
9.848,72.0
9.849,71.6
9.85,72.0
9.851,72.0
9.852,72.0
9.853,72.0
9.854000000000001,71.8
9.855,72.0
9.856,72.0
9.857,72.0
9.858,72.0
9.859,72.0
9.86,72.0
9.861,72.0
9.862,72.0
9.863,72.0
9.864,72.2
9.865,72.2
9.866,72.2
9.867,72.2
9.868,72.2
9.869,72.2
9.870000000000001,72.2
9.871,72.2
9.872,72.2
9.873,72.4
9.874,72.4
9.875,72.2
9.876,72.2
9.877,72.2
9.878,72.4
9.879,72.4
9.88,72.2
9.881,72.4
9.882,72.4
9.883000000000001,72.4
9.884,72.4
9.885,72.6
9.886000000000001,72.2
9.887,72.6
9.888,72.4
9.889,72.6
9.89,72.4
9.891,72.4
9.892,72.6
9.893,72.4
9.894,72.4
9.895,72.6
9.896,72.4
9.897,72.6
9.898,72.6
9.899000000000001,72.6
9.9,72.6
9.901,72.8
9.902000000000001,72.8
9.903,72.6
9.904,72.6
9.905,72.6
9.906,72.8
9.907,72.6
9.908,72.6
9.909,72.6
9.91,72.8
9.911,72.8
9.912,72.8
9.913,72.8
9.914,72.8
9.915000000000001,72.8
9.916,72.8
9.917,72.8
9.918000000000001,72.8
9.919,72.8
9.92,73.0
9.921,72.6
9.922,72.6
9.923,72.8
9.924,72.8
9.925,73.0
9.926,72.8
9.927,73.0
9.928,72.8
9.929,73.0
9.93,72.8
9.931000000000001,72.8
9.932,72.8
9.933,72.8
9.934000000000001,72.8
9.935,73.0
9.936,72.8
9.937,72.8
9.938,73.0
9.939,72.8
9.94,73.0
9.941,72.6
9.942,72.8
9.943,72.8
9.944,73.0
9.945,73.0
9.946,73.0
9.947000000000001,73.0
9.948,73.0
9.949,73.0
9.950000000000001,73.0
9.951,73.0
9.952,73.0
9.953,72.8
9.954,73.0
9.955,73.0
9.956,73.0
9.957,73.0
9.958,73.2
9.959,73.2
9.96,72.8
9.961,72.8
9.962,72.8
9.963000000000001,73.0
9.964,73.0
9.965,73.0
9.966000000000001,73.0
9.967,73.0
9.968,72.8
9.969,72.8
9.97,73.0
9.971,73.0
9.972,73.0
9.973,73.2
9.974,73.0
9.975,72.8
9.976,72.8
9.977,73.0
9.978,73.0
9.979000000000001,73.0
9.98,73.2
9.981,73.0
9.982000000000001,73.0
9.983,73.0
9.984,73.0
9.985,72.8
9.986,72.8
9.987,73.0
9.988,73.0
9.989,72.8
9.99,72.6
9.991,73.2
9.992,72.8
9.993,72.8
9.994,72.8
9.995000000000001,72.8
9.996,72.8
9.997,72.8
9.998,72.8
9.999,72.8
