####### Preamble ##########################
#	byt_nr=1
#	bit_nr=8
#	encdg=BIN
#	bn_fmt=RI
#	byt_or=MSB
#	nr_pt=10000
#	wfid="Ch1, DC coupling, 5.0E0 V/div, 1.0E0 s/div, 10000 points, Sample mode"
#	pt_fmt=Y
#	xincr=1.0E-3
#	pt_off=0
#	xzero=-5.0E0
#	xunit="s"
#	ymult=2.0E-1
#	yzero=0.0E0
#	yoff=5.7E1
#	yunit="V"
#######  Cursor ##########################
#VBA;IND;"s";-3.68E0;-4.02E0;1.4E0;3.4E-1;CURSOR1;-3.8E0;-5.2E0;8.8E0;-8.0E0;1.68E1;CURSOR1;"V";CURSOR1;CURSOR1X;-3.24E1;-2.08E1;9.6E0;4.32E1;RECT;0.0E0;0.0E0;0.0E0;0.0E0;0.0E0;0.0E0;9.9E37;9.9E37;9.9E37;9.9E37;9.9E37;9.9E37;9.9E37;9.9E37;9.9E37;9.9E37;9.9E37;9.9E37
#######  Data ##########################
#RIB;REF1;CH1;1;10000;1
# Delete the above lines to open in excel ######

Time [s],volts [V]
0.0,64.0
0.001,67.6
0.002,66.8
0.003,66.6
0.004,66.6
0.005,66.6
0.006,66.6
0.007,64.2
0.008,64.0
0.009000000000000001,64.0
0.01,63.8
0.011,64.0
0.012,64.0
0.013000000000000001,63.8
0.014,64.0
0.015,63.8
0.016,63.6
0.017,64.0
0.018000000000000002,64.0
0.019,63.8
0.02,63.8
0.021,64.0
0.022,64.0
0.023,63.8
0.024,64.0
0.025,63.6
0.026000000000000002,63.8
0.027,63.6
0.028,63.8
0.029,63.8
0.03,64.0
0.031,63.8
0.032,63.8
0.033,63.8
0.034,63.8
0.035,64.0
0.036000000000000004,63.8
0.037,64.0
0.038,63.8
0.039,63.8
0.04,63.8
0.041,64.0
0.042,63.8
0.043000000000000003,63.8
0.044,63.6
0.045,63.6
0.046,63.8
0.047,63.8
0.048,63.8
0.049,63.8
0.05,63.6
0.051000000000000004,63.6
0.052000000000000005,63.8
0.053,63.8
0.054,63.8
0.055,63.8
0.056,64.0
0.057,63.6
0.058,64.0
0.059000000000000004,63.8
0.06,63.8
0.061,63.8
0.062,63.8
0.063,64.0
0.064,63.8
0.065,63.8
0.066,63.8
0.067,63.8
0.068,63.8
0.069,63.8
0.07,63.8
0.07100000000000001,64.0
0.07200000000000001,63.8
0.073,63.8
0.074,64.0
0.075,63.6
0.076,63.6
0.077,63.8
0.078,64.0
0.079,63.8
0.08,63.8
0.081,63.8
0.082,63.8
0.083,64.0
0.084,64.0
0.085,63.8
0.08600000000000001,63.8
0.08700000000000001,63.8
0.088,64.2
0.089,63.8
0.09,64.2
0.091,64.2
0.092,63.8
0.093,64.2
0.094,64.2
0.095,64.0
0.096,64.0
0.097,64.0
0.098,64.0
0.099,64.2
0.1,63.6
0.101,64.2
0.10200000000000001,63.8
0.10300000000000001,64.2
0.10400000000000001,64.0
0.105,64.0
0.106,64.2
0.107,64.2
0.108,64.0
0.109,64.2
0.11,64.2
0.111,64.4
0.112,64.2
0.113,64.2
0.114,64.0
0.115,64.0
0.116,64.2
0.117,64.2
0.11800000000000001,64.0
0.11900000000000001,64.2
0.12,64.0
0.121,64.2
0.122,64.2
0.123,64.2
0.124,64.2
0.125,64.2
0.126,64.2
0.127,64.2
0.128,64.2
0.129,64.2
0.13,64.0
0.131,64.2
0.132,64.4
0.133,64.4
0.134,64.4
0.135,64.2
0.136,64.2
0.137,64.4
0.138,64.2
0.139,64.2
0.14,64.4
0.14100000000000001,64.4
0.14200000000000002,64.4
0.14300000000000002,64.2
0.14400000000000002,64.2
0.145,64.4
0.146,64.4
0.147,64.4
0.148,64.4
0.149,64.4
0.15,64.4
0.151,64.4
0.152,64.6
0.153,64.4
0.154,64.4
0.155,64.6
0.156,64.6
0.157,64.6
0.158,64.4
0.159,64.6
0.16,64.6
0.161,64.6
0.162,64.6
0.163,64.8
0.164,64.6
0.165,64.4
0.166,64.6
0.167,64.6
0.168,64.6
0.169,64.8
0.17,64.8
0.171,64.6
0.17200000000000001,64.6
0.17300000000000001,64.8
0.17400000000000002,64.8
0.17500000000000002,64.6
0.176,65.0
0.177,64.8
0.178,64.8
0.179,64.8
0.18,65.0
0.181,64.8
0.182,64.8
0.183,64.6
0.184,64.8
0.185,64.8
0.186,64.6
0.187,64.8
0.188,64.8
0.189,64.8
0.19,65.0
0.191,65.0
0.192,65.2
0.193,65.0
0.194,65.2
0.195,65.0
0.196,65.2
0.197,65.2
0.198,65.4
0.199,65.0
0.2,65.0
0.201,65.2
0.202,65.4
0.203,65.0
0.20400000000000001,65.4
0.20500000000000002,65.2
0.20600000000000002,65.4
0.20700000000000002,65.2
0.20800000000000002,65.2
0.209,65.4
0.21,65.4
0.211,65.4
0.212,65.2
0.213,65.0
0.214,65.2
0.215,65.6
0.216,65.6
0.217,65.2
0.218,65.4
0.219,65.6
0.22,65.4
0.221,65.6
0.222,65.6
0.223,65.6
0.224,65.4
0.225,65.6
0.226,65.8
0.227,65.8
0.228,65.8
0.229,65.6
0.23,65.8
0.231,65.8
0.232,65.8
0.233,66.0
0.234,65.6
0.23500000000000001,66.0
0.23600000000000002,65.6
0.23700000000000002,65.8
0.23800000000000002,65.8
0.23900000000000002,66.0
0.24,66.0
0.241,66.0
0.242,66.0
0.243,65.8
0.244,66.0
0.245,66.2
0.246,66.2
0.247,66.2
0.248,66.2
0.249,66.0
0.25,66.2
0.251,66.2
0.252,66.0
0.253,66.0
0.254,66.2
0.255,66.4
0.256,66.2
0.257,66.2
0.258,66.4
0.259,66.4
0.26,66.4
0.261,66.4
0.262,66.4
0.263,66.4
0.264,66.4
0.265,66.4
0.266,66.4
0.267,66.6
0.268,66.6
0.269,66.8
0.27,66.6
0.271,66.8
0.272,66.6
0.273,66.6
0.274,66.6
0.275,67.0
0.276,66.6
0.277,66.8
0.278,67.0
0.279,66.8
0.28,66.8
0.281,67.0
0.28200000000000003,67.0
0.28300000000000003,66.8
0.28400000000000003,67.0
0.28500000000000003,67.2
0.28600000000000003,67.0
0.28700000000000003,67.2
0.28800000000000003,67.2
0.289,67.2
0.29,67.0
0.291,67.2
0.292,67.2
0.293,67.0
0.294,67.2
0.295,67.2
0.296,67.4
0.297,67.6
0.298,67.2
0.299,67.4
0.3,67.4
0.301,67.4
0.302,67.4
0.303,67.6
0.304,67.6
0.305,67.4
0.306,67.6
0.307,67.6
0.308,67.6
0.309,67.6
0.31,67.8
0.311,67.6
0.312,67.8
0.313,67.6
0.314,67.8
0.315,68.0
0.316,67.8
0.317,67.8
0.318,67.8
0.319,68.0
0.32,68.0
0.321,67.8
0.322,68.0
0.323,68.0
0.324,68.0
0.325,68.2
0.326,68.0
0.327,68.2
0.328,68.2
0.329,68.0
0.33,68.2
0.331,68.2
0.332,68.2
0.333,68.6
0.334,68.6
0.335,68.4
0.336,68.2
0.337,68.6
0.338,68.4
0.339,68.4
0.34,68.4
0.341,68.4
0.342,68.8
0.343,68.6
0.34400000000000003,68.8
0.34500000000000003,68.6
0.34600000000000003,68.6
0.34700000000000003,68.8
0.34800000000000003,68.8
0.34900000000000003,68.8
0.35000000000000003,68.8
0.35100000000000003,69.0
0.352,69.0
0.353,68.8
0.354,68.8
0.355,69.2
0.356,69.0
0.357,69.2
0.358,69.2
0.359,69.2
0.36,69.0
0.361,69.2
0.362,69.2
0.363,69.0
0.364,69.2
0.365,69.4
0.366,69.4
0.367,69.2
0.368,69.4
0.369,69.2
0.37,69.4
0.371,69.4
0.372,69.2
0.373,69.4
0.374,69.6
0.375,69.4
0.376,69.6
0.377,69.6
0.378,69.6
0.379,69.6
0.38,69.8
0.381,69.8
0.382,69.6
0.383,69.8
0.384,69.8
0.385,69.8
0.386,69.8
0.387,70.0
0.388,70.0
0.389,70.0
0.39,70.2
0.391,70.0
0.392,70.2
0.393,70.0
0.394,70.2
0.395,70.2
0.396,70.4
0.397,70.2
0.398,70.2
0.399,70.2
0.4,70.4
0.401,70.2
0.402,70.2
0.403,70.4
0.404,70.4
0.405,70.4
0.406,70.4
0.40700000000000003,70.4
0.40800000000000003,70.6
0.40900000000000003,70.4
0.41000000000000003,70.4
0.41100000000000003,70.4
0.41200000000000003,70.6
0.41300000000000003,70.6
0.41400000000000003,70.6
0.41500000000000004,70.6
0.41600000000000004,70.6
0.417,70.8
0.418,70.8
0.419,70.8
0.42,70.4
0.421,70.6
0.422,70.6
0.423,70.6
0.424,70.8
0.425,70.8
0.426,71.0
0.427,70.8
0.428,71.0
0.429,71.0
0.43,71.0
0.431,71.0
0.432,70.8
0.433,71.2
0.434,71.0
0.435,71.2
0.436,71.0
0.437,71.2
0.438,71.2
0.439,71.2
0.44,71.0
0.441,71.2
0.442,71.0
0.443,71.2
0.444,71.6
0.445,71.2
0.446,71.2
0.447,71.4
0.448,71.2
0.449,71.4
0.45,71.4
0.451,71.4
0.452,71.6
0.453,71.4
0.454,71.4
0.455,71.6
0.456,71.6
0.457,71.4
0.458,71.8
0.459,71.6
0.46,71.8
0.461,72.0
0.462,71.4
0.463,71.6
0.464,71.6
0.465,71.8
0.466,72.0
0.467,71.6
0.468,71.8
0.46900000000000003,71.8
0.47000000000000003,72.0
0.47100000000000003,71.8
0.47200000000000003,71.8
0.47300000000000003,72.0
0.47400000000000003,71.8
0.47500000000000003,71.8
0.47600000000000003,72.0
0.47700000000000004,72.0
0.47800000000000004,72.0
0.47900000000000004,72.0
0.48,72.0
0.481,71.8
0.482,72.0
0.483,72.0
0.484,72.2
0.485,71.8
0.486,72.0
0.487,72.4
0.488,72.0
0.489,72.0
0.49,72.2
0.491,72.2
0.492,72.2
0.493,72.2
0.494,72.2
0.495,72.2
0.496,72.0
0.497,72.2
0.498,72.2
0.499,72.2
0.5,72.2
0.501,72.4
0.502,72.2
0.503,72.4
0.504,72.4
0.505,72.2
0.506,72.4
0.507,72.4
0.508,72.4
0.509,72.2
0.51,72.2
0.511,72.2
0.512,72.4
0.513,72.4
0.514,72.4
0.515,72.2
0.516,72.6
0.517,72.6
0.518,72.6
0.519,72.0
0.52,72.4
0.521,72.4
0.522,72.4
0.523,72.6
0.524,72.6
0.525,72.6
0.526,72.4
0.527,72.6
0.528,72.6
0.529,72.8
0.53,72.8
0.531,72.4
0.532,72.8
0.533,72.8
0.534,72.6
0.535,72.6
0.536,72.8
0.537,72.8
0.538,72.8
0.539,72.6
0.54,72.6
0.541,72.6
0.542,73.0
0.543,72.8
0.544,73.0
0.545,72.8
0.546,72.8
0.547,72.8
0.548,72.8
0.549,72.8
0.55,72.6
0.551,73.0
0.552,72.8
0.553,72.8
0.554,72.6
0.555,73.0
0.556,73.0
0.557,72.8
0.558,72.8
0.559,72.8
0.56,72.8
0.561,72.6
0.562,73.0
0.5630000000000001,72.8
0.5640000000000001,73.0
0.5650000000000001,73.0
0.5660000000000001,73.0
0.5670000000000001,72.6
0.5680000000000001,73.0
0.5690000000000001,72.8
0.5700000000000001,73.0
0.5710000000000001,73.0
0.5720000000000001,72.8
0.5730000000000001,72.6
0.5740000000000001,73.0
0.5750000000000001,73.0
0.5760000000000001,73.0
0.577,72.8
0.578,73.0
0.579,73.0
0.58,72.8
0.581,72.8
0.582,73.0
0.583,72.8
0.584,72.8
0.585,73.0
0.586,73.0
0.587,73.0
0.588,73.0
0.589,73.0
0.59,73.0
0.591,72.8
0.592,73.0
0.593,73.0
0.594,73.0
0.595,72.8
0.596,73.2
0.597,72.8
0.598,72.8
0.599,72.8
0.6,73.0
0.601,73.0
0.602,73.0
0.603,72.8
0.604,73.0
0.605,73.0
0.606,73.0
0.607,73.0
0.608,73.0
0.609,72.8
0.61,72.8
0.611,73.0
0.612,73.0
0.613,72.8
0.614,72.8
0.615,73.0
0.616,73.0
0.617,73.0
0.618,72.6
0.619,72.6
0.62,72.8
0.621,72.6
0.622,73.0
0.623,72.8
0.624,72.8
0.625,72.8
0.626,72.8
0.627,73.0
0.628,72.8
0.629,72.8
0.63,72.6
0.631,73.0
0.632,72.8
0.633,72.8
0.634,72.8
0.635,72.8
0.636,72.8
0.637,72.8
0.638,72.4
0.639,72.6
0.64,72.8
0.641,72.6
0.642,72.8
0.643,72.8
0.644,72.6
0.645,72.6
0.646,72.6
0.647,72.8
0.648,72.8
0.649,72.4
0.65,72.6
0.651,72.4
0.652,72.6
0.653,72.4
0.654,72.6
0.655,72.6
0.656,72.6
0.657,72.6
0.658,72.6
0.659,72.4
0.66,72.2
0.661,72.4
0.662,72.4
0.663,72.4
0.664,72.4
0.665,72.6
0.666,72.2
0.667,72.4
0.668,72.6
0.669,72.2
0.67,72.2
0.671,72.4
0.672,72.4
0.673,72.2
0.674,72.4
0.675,72.4
0.676,72.2
0.677,72.2
0.678,72.4
0.679,72.2
0.68,72.0
0.681,72.0
0.682,72.2
0.683,72.2
0.684,72.2
0.685,72.4
0.686,72.2
0.687,72.2
0.6880000000000001,72.2
0.6890000000000001,72.0
0.6900000000000001,72.0
0.6910000000000001,72.0
0.6920000000000001,72.0
0.6930000000000001,72.2
0.6940000000000001,72.0
0.6950000000000001,72.0
0.6960000000000001,72.0
0.6970000000000001,72.0
0.6980000000000001,71.8
0.6990000000000001,72.0
0.7000000000000001,72.0
0.7010000000000001,72.0
0.7020000000000001,71.8
0.7030000000000001,71.8
0.704,72.0
0.705,72.0
0.706,72.0
0.707,71.8
0.708,71.8
0.709,71.8
0.71,71.8
0.711,71.8
0.712,71.6
0.713,71.6
0.714,72.0
0.715,71.6
0.716,71.8
0.717,71.6
0.718,71.8
0.719,71.8
0.72,71.4
0.721,72.0
0.722,71.6
0.723,71.6
0.724,71.4
0.725,71.6
0.726,71.6
0.727,71.6
0.728,71.6
0.729,71.2
0.73,71.4
0.731,71.2
0.732,71.4
0.733,71.0
0.734,71.2
0.735,71.2
0.736,71.4
0.737,71.0
0.738,71.2
0.739,71.2
0.74,71.2
0.741,71.2
0.742,71.0
0.743,71.2
0.744,71.0
0.745,71.0
0.746,71.2
0.747,71.0
0.748,70.8
0.749,71.0
0.75,70.8
0.751,70.8
0.752,71.0
0.753,71.0
0.754,70.8
0.755,71.0
0.756,70.8
0.757,70.8
0.758,70.8
0.759,70.6
0.76,70.8
0.761,70.4
0.762,70.6
0.763,70.8
0.764,70.8
0.765,70.4
0.766,70.6
0.767,70.6
0.768,70.6
0.769,70.4
0.77,70.6
0.771,70.4
0.772,70.4
0.773,70.4
0.774,70.4
0.775,70.2
0.776,70.4
0.777,70.4
0.778,70.2
0.779,70.4
0.78,70.2
0.781,70.4
0.782,70.2
0.783,70.2
0.784,70.2
0.785,70.2
0.786,70.2
0.787,70.2
0.788,70.0
0.789,70.0
0.79,70.0
0.791,70.0
0.792,69.8
0.793,69.6
0.794,69.8
0.795,69.6
0.796,69.8
0.797,69.6
0.798,69.8
0.799,69.6
0.8,69.6
0.801,69.6
0.802,69.4
0.803,69.6
0.804,69.4
0.805,69.6
0.806,69.6
0.807,69.4
0.808,69.2
0.809,69.6
0.81,69.4
0.811,69.2
0.812,69.4
0.8130000000000001,69.2
0.8140000000000001,69.2
0.8150000000000001,69.2
0.8160000000000001,69.0
0.8170000000000001,69.0
0.8180000000000001,69.2
0.8190000000000001,69.0
0.8200000000000001,69.2
0.8210000000000001,69.0
0.8220000000000001,69.2
0.8230000000000001,69.0
0.8240000000000001,69.0
0.8250000000000001,68.8
0.8260000000000001,68.8
0.8270000000000001,69.0
0.8280000000000001,68.8
0.8290000000000001,68.8
0.8300000000000001,68.8
0.8310000000000001,68.8
0.8320000000000001,68.8
0.833,68.6
0.834,68.6
0.835,68.6
0.836,68.6
0.837,68.4
0.838,68.6
0.839,68.4
0.84,68.4
0.841,68.6
0.842,68.4
0.843,68.2
0.844,68.4
0.845,68.4
0.846,68.4
0.847,68.4
0.848,68.4
0.849,68.2
0.85,68.2
0.851,68.0
0.852,68.2
0.853,68.2
0.854,68.2
0.855,68.2
0.856,68.2
0.857,68.2
0.858,68.0
0.859,68.0
0.86,68.0
0.861,68.0
0.862,67.8
0.863,68.0
0.864,67.8
0.865,67.6
0.866,67.8
0.867,67.8
0.868,67.8
0.869,67.6
0.87,67.6
0.871,67.8
0.872,67.6
0.873,67.6
0.874,67.4
0.875,67.6
0.876,67.6
0.877,67.4
0.878,67.4
0.879,67.4
0.88,67.4
0.881,67.4
0.882,67.2
0.883,67.4
0.884,67.4
0.885,67.2
0.886,67.2
0.887,67.2
0.888,67.2
0.889,67.4
0.89,66.8
0.891,67.0
0.892,67.2
0.893,67.0
0.894,67.0
0.895,66.8
0.896,67.0
0.897,67.0
0.898,67.0
0.899,66.8
0.9,66.8
0.901,66.8
0.902,66.8
0.903,66.8
0.904,67.0
0.905,66.6
0.906,66.6
0.907,66.6
0.908,66.6
0.909,66.8
0.91,66.6
0.911,66.4
0.912,66.4
0.913,66.6
0.914,66.4
0.915,66.4
0.916,66.4
0.917,66.4
0.918,66.4
0.919,66.4
0.92,66.2
0.921,66.2
0.922,66.2
0.923,66.4
0.924,66.2
0.925,66.0
0.926,66.2
0.927,66.0
0.928,66.0
0.929,66.0
0.93,66.0
0.931,66.0
0.932,66.2
0.933,66.0
0.934,66.0
0.935,66.0
0.936,65.8
0.937,66.0
0.9380000000000001,65.8
0.9390000000000001,65.8
0.9400000000000001,65.8
0.9410000000000001,65.8
0.9420000000000001,65.6
0.9430000000000001,65.6
0.9440000000000001,65.8
0.9450000000000001,65.6
0.9460000000000001,65.6
0.9470000000000001,65.6
0.9480000000000001,65.6
0.9490000000000001,65.6
0.9500000000000001,65.4
0.9510000000000001,65.6
0.9520000000000001,65.8
0.9530000000000001,65.8
0.9540000000000001,65.4
0.9550000000000001,65.4
0.9560000000000001,65.4
0.9570000000000001,65.4
0.9580000000000001,65.4
0.9590000000000001,65.4
0.96,65.4
0.961,65.2
0.962,65.4
0.963,65.0
0.964,65.2
0.965,65.2
0.966,65.2
0.967,65.0
0.968,65.2
0.969,65.0
0.97,65.2
0.971,65.2
0.972,65.2
0.973,65.0
0.974,65.4
0.975,65.4
0.976,65.0
0.977,65.0
0.978,64.8
0.979,65.0
0.98,65.0
0.981,65.0
0.982,65.0
0.983,64.8
0.984,64.8
0.985,65.0
0.986,64.8
0.987,64.8
0.988,64.8
0.989,64.8
0.99,64.8
0.991,64.4
0.992,64.8
0.993,64.8
0.994,64.8
0.995,64.8
0.996,64.8
0.997,64.8
0.998,64.8
0.999,64.4
1.0,64.6
1.0010000000000001,64.6
1.002,64.6
1.0030000000000001,64.6
1.004,64.6
1.0050000000000001,64.6
1.006,64.4
1.0070000000000001,64.6
1.008,64.4
1.0090000000000001,64.4
1.01,64.4
1.0110000000000001,64.4
1.012,64.6
1.0130000000000001,64.4
1.014,64.2
1.0150000000000001,64.4
1.016,64.2
1.0170000000000001,64.4
1.018,64.4
1.0190000000000001,64.4
1.02,64.4
1.0210000000000001,64.4
1.022,64.4
1.0230000000000001,64.4
1.024,64.2
1.025,64.4
1.026,64.2
1.027,64.4
1.028,64.4
1.029,64.2
1.03,64.2
1.031,64.2
1.032,64.2
1.033,64.2
1.034,64.0
1.035,64.0
1.036,64.2
1.037,64.2
1.038,64.2
1.039,64.2
1.04,64.0
1.041,64.0
1.042,64.2
1.043,64.2
1.044,64.0
1.045,64.0
1.046,64.2
1.047,64.2
1.048,64.0
1.049,64.0
1.05,64.2
1.051,64.2
1.052,64.0
1.053,64.0
1.054,64.2
1.055,64.2
1.056,64.0
1.057,64.2
1.058,63.8
1.059,64.2
1.06,64.0
1.061,64.2
1.062,64.0
1.063,64.0
1.064,64.2
1.065,63.8
1.066,63.8
1.067,64.2
1.068,64.0
1.069,64.0
1.07,64.0
1.071,64.0
1.072,63.8
1.073,64.0
1.074,64.2
1.075,63.8
1.076,63.8
1.077,64.0
1.078,64.2
1.079,63.8
1.08,64.0
1.081,63.8
1.082,63.8
1.083,64.2
1.084,63.8
1.085,64.0
1.086,63.8
1.087,63.8
1.088,63.8
1.089,63.8
1.09,63.8
1.091,64.0
1.092,63.8
1.093,63.8
1.094,63.8
1.095,64.0
1.096,63.8
1.097,64.0
1.098,63.8
1.099,64.0
1.1,64.0
1.101,64.0
1.102,63.8
1.103,63.8
1.104,63.8
1.105,63.6
1.106,64.0
1.107,63.8
1.108,63.6
1.109,63.8
1.11,63.8
1.111,63.8
1.112,64.0
1.113,63.8
1.114,63.6
1.115,63.6
1.116,63.6
1.117,64.0
1.118,63.8
1.119,63.8
1.12,63.8
1.121,63.8
1.122,63.8
1.123,64.0
1.124,63.8
1.125,63.8
1.1260000000000001,63.8
1.127,63.8
1.1280000000000001,64.0
1.129,63.8
1.1300000000000001,64.0
1.131,64.0
1.1320000000000001,64.0
1.133,63.6
1.1340000000000001,63.8
1.135,63.8
1.1360000000000001,64.2
1.137,64.0
1.1380000000000001,63.8
1.139,63.8
1.1400000000000001,63.8
1.141,64.0
1.1420000000000001,64.0
1.143,64.0
1.1440000000000001,64.0
1.145,64.0
1.1460000000000001,63.8
1.147,63.8
1.1480000000000001,64.0
1.149,64.2
1.1500000000000001,63.8
1.151,64.0
1.1520000000000001,64.2
1.153,64.0
1.154,64.2
1.155,64.0
1.156,64.0
1.157,64.0
1.158,64.0
1.159,64.2
1.16,64.2
1.161,64.0
1.162,64.0
1.163,64.0
1.164,64.0
1.165,63.8
1.166,64.0
1.167,64.0
1.168,64.0
1.169,64.2
1.17,64.0
1.171,63.8
1.172,64.2
1.173,64.0
1.174,64.0
1.175,64.0
1.176,64.0
1.177,64.0
1.178,64.0
1.179,64.2
1.18,64.2
1.181,64.2
1.182,64.2
1.183,64.2
1.184,64.2
1.185,64.2
1.186,64.2
1.187,64.2
1.188,64.0
1.189,64.0
1.19,64.2
1.191,64.2
1.192,64.2
1.193,64.2
1.194,64.4
1.195,64.2
1.196,64.2
1.197,64.0
1.198,64.4
1.199,64.4
1.2,64.4
1.201,64.4
1.202,64.2
1.203,64.0
1.204,64.2
1.205,64.4
1.206,64.6
1.207,64.4
1.208,64.4
1.209,64.6
1.21,64.4
1.211,64.4
1.212,64.2
1.213,64.4
1.214,64.2
1.215,64.2
1.216,64.6
1.217,64.4
1.218,64.4
1.219,64.4
1.22,64.6
1.221,64.6
1.222,64.6
1.223,64.6
1.224,64.4
1.225,64.6
1.226,64.4
1.227,64.6
1.228,64.4
1.229,64.8
1.23,64.8
1.231,64.6
1.232,64.6
1.233,64.6
1.234,64.8
1.235,64.8
1.236,64.8
1.237,64.8
1.238,64.8
1.239,64.6
1.24,64.8
1.241,64.8
1.242,64.8
1.243,64.8
1.244,65.0
1.245,64.8
1.246,64.8
1.247,64.6
1.248,65.0
1.249,65.0
1.25,65.0
1.2510000000000001,65.0
1.252,65.0
1.2530000000000001,65.0
1.254,64.8
1.2550000000000001,65.2
1.256,65.0
1.2570000000000001,65.0
1.258,65.2
1.2590000000000001,65.2
1.26,65.0
1.2610000000000001,65.0
1.262,65.2
1.2630000000000001,65.0
1.264,65.0
1.2650000000000001,65.2
1.266,65.2
1.2670000000000001,65.2
1.268,65.4
1.2690000000000001,65.4
1.27,65.2
1.2710000000000001,65.4
1.272,65.2
1.2730000000000001,65.2
1.274,65.4
1.2750000000000001,65.2
1.276,65.4
1.2770000000000001,65.4
1.278,65.4
1.2790000000000001,65.6
1.28,65.4
1.281,65.6
1.282,65.8
1.283,65.6
1.284,65.4
1.285,65.6
1.286,65.8
1.287,65.4
1.288,65.6
1.289,65.6
1.29,65.6
1.291,65.8
1.292,65.6
1.293,65.8
1.294,65.8
1.295,65.8
1.296,65.8
1.297,65.8
1.298,65.8
1.299,66.0
1.3,65.8
1.301,65.8
1.302,65.8
1.303,65.8
1.304,66.2
1.305,66.0
1.306,65.8
1.307,66.0
1.308,66.0
1.309,66.2
1.31,66.2
1.311,66.0
1.312,66.0
1.313,66.2
1.314,66.2
1.315,66.2
1.316,66.2
1.317,66.4
1.318,66.2
1.319,66.4
1.32,66.4
1.321,66.4
1.322,66.4
1.323,66.2
1.324,66.6
1.325,66.6
1.326,66.4
1.327,66.4
1.328,66.4
1.329,66.4
1.33,66.4
1.331,66.6
1.332,66.4
1.333,66.6
1.334,66.6
1.335,66.6
1.336,66.8
1.337,66.6
1.338,66.8
1.339,66.8
1.34,66.8
1.341,67.0
1.342,66.8
1.343,67.0
1.344,67.0
1.345,66.8
1.346,67.0
1.347,67.0
1.348,67.0
1.349,67.2
1.35,67.0
1.351,67.0
1.352,67.4
1.353,67.2
1.354,67.4
1.355,67.4
1.356,67.2
1.357,67.2
1.358,67.4
1.359,67.4
1.36,67.2
1.361,67.4
1.362,67.4
1.363,67.4
1.364,67.4
1.365,67.6
1.366,67.6
1.367,67.4
1.368,67.4
1.369,67.6
1.37,67.6
1.371,67.6
1.372,67.6
1.373,67.8
1.374,67.8
1.375,67.8
1.3760000000000001,67.6
1.377,68.0
1.3780000000000001,67.8
1.379,67.8
1.3800000000000001,67.8
1.381,67.8
1.3820000000000001,67.8
1.383,68.0
1.3840000000000001,68.2
1.385,68.0
1.3860000000000001,68.0
1.387,68.2
1.3880000000000001,68.2
1.389,68.0
1.3900000000000001,68.2
1.391,68.2
1.3920000000000001,68.0
1.393,68.4
1.3940000000000001,68.4
1.395,68.2
1.3960000000000001,68.4
1.397,68.6
1.3980000000000001,68.4
1.399,68.4
1.4000000000000001,68.2
1.401,68.4
1.4020000000000001,68.6
1.403,68.6
1.4040000000000001,68.6
1.405,68.6
1.4060000000000001,68.4
1.407,68.6
1.408,68.6
1.409,68.8
1.41,68.8
1.411,68.8
1.412,68.8
1.413,68.8
1.414,68.8
1.415,69.0
1.416,69.0
1.417,68.8
1.418,69.0
1.419,69.0
1.42,69.2
1.421,69.2
1.422,69.0
1.423,69.0
1.424,69.2
1.425,69.2
1.426,69.2
1.427,69.4
1.428,69.4
1.429,69.6
1.43,69.2
1.431,69.4
1.432,69.6
1.433,69.4
1.434,69.6
1.435,69.6
1.436,69.6
1.437,69.6
1.438,69.6
1.439,69.8
1.44,69.6
1.441,69.6
1.442,69.8
1.443,69.8
1.444,69.6
1.445,69.8
1.446,70.0
1.447,69.8
1.448,70.0
1.449,70.0
1.45,70.0
1.451,70.0
1.452,69.8
1.453,70.0
1.454,70.0
1.455,70.0
1.456,70.2
1.457,70.2
1.458,70.0
1.459,70.2
1.46,70.4
1.461,70.2
1.462,70.2
1.463,70.4
1.464,70.2
1.465,70.2
1.466,70.4
1.467,70.4
1.468,70.4
1.469,70.6
1.47,70.6
1.471,70.4
1.472,70.6
1.473,70.6
1.474,70.6
1.475,70.6
1.476,70.6
1.477,70.6
1.478,70.6
1.479,70.6
1.48,70.8
1.481,70.6
1.482,70.8
1.483,70.8
1.484,70.8
1.485,71.0
1.486,70.6
1.487,70.8
1.488,70.8
1.489,71.0
1.49,70.8
1.491,71.0
1.492,71.0
1.493,71.0
1.494,71.0
1.495,71.2
1.496,71.0
1.497,71.4
1.498,71.0
1.499,71.0
1.5,71.0
1.5010000000000001,70.8
1.502,71.2
1.5030000000000001,71.4
1.504,71.0
1.5050000000000001,71.2
1.506,71.4
1.5070000000000001,71.4
1.508,71.4
1.5090000000000001,71.2
1.51,71.4
1.5110000000000001,71.2
1.512,71.2
1.5130000000000001,71.4
1.514,71.6
1.5150000000000001,71.6
1.516,71.4
1.5170000000000001,71.6
1.518,71.4
1.5190000000000001,71.6
1.52,71.6
1.5210000000000001,71.6
1.522,71.6
1.5230000000000001,71.6
1.524,71.4
1.5250000000000001,71.6
1.526,71.8
1.5270000000000001,71.6
1.528,71.8
1.5290000000000001,71.6
1.53,71.8
1.5310000000000001,71.8
1.532,72.0
1.5330000000000001,72.0
1.534,72.0
1.5350000000000001,71.6
1.536,72.0
1.537,71.8
1.538,72.0
1.539,71.8
1.54,71.8
1.541,72.0
1.542,71.8
1.543,71.8
1.544,71.8
1.545,72.0
1.546,72.0
1.547,72.2
1.548,72.0
1.549,72.2
1.55,72.0
1.551,71.8
1.552,72.0
1.553,72.0
1.554,72.2
1.555,72.2
1.556,72.2
1.557,72.0
1.558,72.2
1.559,72.4
1.56,72.0
1.561,72.0
1.562,72.4
1.563,72.2
1.564,72.2
1.565,72.4
1.566,72.4
1.567,72.4
1.568,72.4
1.569,72.2
1.57,72.4
1.571,72.4
1.572,72.2
1.573,72.4
1.574,72.4
1.575,72.4
1.576,72.4
1.577,72.4
1.578,72.6
1.579,72.6
1.58,72.4
1.581,72.6
1.582,72.4
1.583,72.4
1.584,72.6
1.585,72.4
1.586,72.6
1.587,72.4
1.588,72.6
1.589,72.6
1.59,72.8
1.591,72.6
1.592,72.4
1.593,72.4
1.594,72.8
1.595,72.6
1.596,72.8
1.597,72.8
1.598,72.6
1.599,72.6
1.6,72.6
1.601,72.8
1.602,72.8
1.603,72.6
1.604,72.8
1.605,72.8
1.606,72.8
1.607,73.0
1.608,72.6
1.609,72.6
1.61,72.8
1.611,72.8
1.612,73.0
1.613,72.8
1.614,72.8
1.615,72.8
1.616,73.0
1.617,73.0
1.618,73.0
1.619,73.0
1.62,72.8
1.621,72.8
1.622,73.0
1.623,72.8
1.624,72.8
1.625,73.2
1.6260000000000001,73.0
1.627,72.8
1.6280000000000001,72.6
1.629,72.8
1.6300000000000001,73.0
1.631,72.8
1.6320000000000001,73.0
1.633,73.0
1.6340000000000001,73.0
1.635,72.8
1.6360000000000001,73.0
1.637,73.0
1.6380000000000001,72.8
1.639,72.8
1.6400000000000001,73.0
1.641,73.0
1.6420000000000001,72.8
1.643,72.8
1.6440000000000001,73.0
1.645,73.0
1.6460000000000001,73.0
1.647,73.0
1.6480000000000001,73.0
1.649,73.0
1.6500000000000001,72.8
1.651,73.0
1.6520000000000001,73.0
1.653,73.0
1.6540000000000001,73.0
1.655,73.0
1.6560000000000001,72.8
1.657,73.0
1.6580000000000001,73.0
1.659,73.0
1.6600000000000001,73.0
1.661,73.0
1.6620000000000001,72.8
1.663,73.0
1.6640000000000001,73.0
1.665,73.0
1.666,72.8
1.667,73.0
1.668,73.0
1.669,72.6
1.67,73.0
1.671,73.0
1.672,73.0
1.673,73.0
1.674,73.0
1.675,72.8
1.676,73.0
1.677,73.0
1.678,73.0
1.679,72.8
1.68,73.0
1.681,73.0
1.682,73.0
1.683,73.2
1.684,72.6
1.685,72.8
1.686,72.8
1.687,72.8
1.688,72.8
1.689,73.0
1.69,72.8
1.691,72.8
1.692,72.8
1.693,73.0
1.694,72.8
1.695,73.0
1.696,72.8
1.697,72.6
1.698,72.6
1.699,72.6
1.7,73.0
1.701,72.8
1.702,72.6
1.703,72.6
1.704,72.8
1.705,72.8
1.706,72.8
1.707,72.6
1.708,72.6
1.709,72.6
1.71,72.6
1.711,72.6
1.712,73.0
1.713,72.8
1.714,72.4
1.715,72.6
1.716,72.6
1.717,72.6
1.718,72.6
1.719,72.4
1.72,72.6
1.721,72.4
1.722,72.4
1.723,72.4
1.724,72.4
1.725,72.4
1.726,72.4
1.727,72.4
1.728,72.4
1.729,72.2
1.73,72.6
1.731,72.4
1.732,72.4
1.733,72.2
1.734,72.4
1.735,72.2
1.736,72.4
1.737,72.2
1.738,72.2
1.739,72.4
1.74,72.4
1.741,72.2
1.742,72.2
1.743,72.4
1.744,72.4
1.745,72.2
1.746,72.2
1.747,72.2
1.748,72.2
1.749,71.8
1.75,72.2
1.7510000000000001,72.0
1.752,72.2
1.7530000000000001,72.2
1.754,72.0
1.7550000000000001,72.0
1.756,72.0
1.7570000000000001,72.2
1.758,72.0
1.7590000000000001,72.0
1.76,72.0
1.7610000000000001,71.8
1.762,71.8
1.7630000000000001,72.0
1.764,72.0
1.7650000000000001,72.0
1.766,72.0
1.7670000000000001,72.0
1.768,71.6
1.7690000000000001,71.6
1.77,71.8
1.7710000000000001,72.0
1.772,71.8
1.7730000000000001,72.0
1.774,72.0
1.7750000000000001,71.8
1.776,71.6
1.7770000000000001,71.6
1.778,71.6
1.7790000000000001,71.6
1.78,71.8
1.7810000000000001,72.0
1.782,71.6
1.7830000000000001,71.4
1.784,71.4
1.7850000000000001,71.4
1.786,71.4
1.7870000000000001,71.4
1.788,71.4
1.7890000000000001,71.6
1.79,71.4
1.7910000000000001,71.4
1.792,71.4
1.793,71.4
1.794,71.4
1.795,71.4
1.796,71.2
1.797,71.2
1.798,71.2
1.799,71.4
1.8,71.2
1.801,71.2
1.802,71.2
1.803,71.2
1.804,71.2
1.805,71.2
1.806,70.8
1.807,71.0
1.808,70.8
1.809,71.0
1.81,71.0
1.811,71.0
1.812,71.0
1.813,71.0
1.814,71.0
1.815,71.0
1.816,70.8
1.817,70.8
1.818,70.8
1.819,70.6
1.82,70.8
1.821,70.6
1.822,70.6
1.823,70.8
1.824,70.6
1.825,70.6
1.826,70.6
1.827,70.4
1.828,70.6
1.829,70.6
1.83,70.6
1.831,70.6
1.832,70.4
1.833,70.6
1.834,70.4
1.835,70.6
1.836,70.4
1.837,70.4
1.838,70.4
1.839,70.4
1.84,70.2
1.841,70.0
1.842,70.4
1.843,70.2
1.844,70.4
1.845,70.4
1.846,70.4
1.847,70.0
1.848,70.2
1.849,70.4
1.85,70.0
1.851,70.0
1.852,70.0
1.853,69.8
1.854,69.6
1.855,69.8
1.856,70.0
1.857,69.8
1.858,69.6
1.859,70.0
1.86,69.6
1.861,69.8
1.862,69.6
1.863,69.4
1.864,69.6
1.865,69.8
1.866,69.8
1.867,69.6
1.868,69.6
1.869,69.4
1.87,69.6
1.871,69.2
1.872,69.6
1.873,69.6
1.874,69.2
1.875,69.2
1.8760000000000001,69.2
1.877,69.2
1.8780000000000001,69.2
1.879,69.2
1.8800000000000001,69.2
1.881,69.2
1.8820000000000001,69.0
1.883,69.0
1.8840000000000001,69.0
1.885,69.2
1.8860000000000001,68.8
1.887,68.8
1.8880000000000001,69.0
1.889,68.8
1.8900000000000001,68.8
1.891,68.8
1.8920000000000001,68.8
1.893,69.0
1.8940000000000001,68.8
1.895,68.8
1.8960000000000001,68.6
1.897,68.8
1.8980000000000001,68.6
1.899,68.6
1.9000000000000001,68.6
1.901,68.6
1.9020000000000001,68.6
1.903,68.6
1.9040000000000001,68.4
1.905,68.4
1.9060000000000001,68.6
1.907,68.4
1.9080000000000001,68.2
1.909,68.2
1.9100000000000001,68.4
1.911,68.4
1.9120000000000001,68.2
1.913,68.2
1.9140000000000001,68.2
1.915,68.2
1.9160000000000001,68.2
1.917,68.0
1.9180000000000001,68.2
1.919,68.2
1.92,67.8
1.921,68.0
1.922,68.0
1.923,68.0
1.924,67.8
1.925,67.8
1.926,67.6
1.927,67.8
1.928,67.8
1.929,67.8
1.93,67.6
1.931,67.8
1.932,67.6
1.933,67.6
1.934,67.6
1.935,67.8
1.936,67.6
1.937,67.6
1.938,67.4
1.939,67.4
1.94,67.4
1.941,67.6
1.942,67.6
1.943,67.4
1.944,67.4
1.945,67.4
1.946,67.4
1.947,67.2
1.948,67.2
1.949,67.2
1.95,67.2
1.951,67.0
1.952,67.2
1.953,67.2
1.954,67.0
1.955,67.0
1.956,67.0
1.957,66.8
1.958,67.0
1.959,67.0
1.96,66.8
1.961,66.8
1.962,66.8
1.963,66.8
1.964,66.8
1.965,66.8
1.966,66.8
1.967,66.8
1.968,66.6
1.969,66.8
1.97,66.6
1.971,66.6
1.972,66.6
1.973,66.6
1.974,66.4
1.975,66.4
1.976,66.4
1.977,66.4
1.978,66.4
1.979,66.4
1.98,66.6
1.981,66.2
1.982,66.4
1.983,66.2
1.984,66.4
1.985,66.2
1.986,66.2
1.987,66.4
1.988,66.2
1.989,66.0
1.99,66.4
1.991,66.2
1.992,66.2
1.993,66.2
1.994,66.0
1.995,66.0
1.996,65.8
1.997,66.0
1.998,66.0
1.999,65.8
2.0,65.8
2.001,66.0
2.0020000000000002,66.2
2.003,66.0
2.004,65.6
2.005,65.8
2.0060000000000002,65.6
2.007,65.6
2.008,66.0
2.009,65.6
2.0100000000000002,65.8
2.011,65.6
2.012,65.8
2.013,65.8
2.0140000000000002,65.8
2.015,65.8
2.016,65.6
2.017,65.6
2.0180000000000002,65.4
2.019,65.4
2.02,65.4
2.021,65.6
2.0220000000000002,65.2
2.023,65.4
2.024,65.2
2.025,65.2
2.0260000000000002,65.4
2.027,65.2
2.028,65.2
2.029,65.2
2.0300000000000002,65.0
2.031,65.0
2.032,65.0
2.033,65.2
2.0340000000000003,65.0
2.035,65.0
2.036,65.2
2.037,65.0
2.0380000000000003,65.0
2.039,64.8
2.04,65.0
2.041,65.0
2.0420000000000003,65.0
2.043,65.0
2.044,65.0
2.045,64.8
2.0460000000000003,64.6
2.047,65.0
2.048,64.8
2.049,65.0
2.05,64.6
2.051,65.0
2.052,64.6
2.053,64.6
2.054,64.8
2.055,64.6
2.056,64.6
2.057,64.6
2.058,64.6
2.059,64.6
2.06,64.6
2.061,64.6
2.062,64.4
2.063,64.6
2.064,64.6
2.065,64.4
2.066,64.6
2.067,64.6
2.068,64.6
2.069,64.4
2.07,64.6
2.071,64.6
2.072,64.4
2.073,64.8
2.074,64.4
2.075,64.4
2.076,64.6
2.077,64.6
2.078,64.6
2.079,64.4
2.08,64.2
2.081,64.4
2.082,64.4
2.083,64.4
2.084,64.2
2.085,64.4
2.086,64.4
2.087,64.4
2.088,64.0
2.089,64.4
2.09,64.4
2.091,64.4
2.092,64.4
2.093,64.4
2.094,64.0
2.095,64.2
2.096,64.4
2.097,64.2
2.098,64.2
2.099,64.2
2.1,64.2
2.101,64.2
2.102,64.4
2.103,64.0
2.104,64.0
2.105,64.0
2.106,64.0
2.107,64.2
2.108,64.0
2.109,64.2
2.11,64.0
2.111,64.2
2.112,64.2
2.113,64.2
2.114,64.2
2.115,64.0
2.116,64.4
2.117,64.0
2.118,64.0
2.119,64.0
2.12,64.2
2.121,64.0
2.122,64.2
2.123,64.0
2.124,64.0
2.125,64.0
2.126,64.0
2.1270000000000002,64.2
2.128,64.2
2.129,64.0
2.13,64.0
2.1310000000000002,64.0
2.132,63.8
2.133,64.0
2.134,64.0
2.1350000000000002,64.0
2.136,64.0
2.137,64.0
2.138,63.8
2.1390000000000002,64.0
2.14,63.8
2.141,63.8
2.142,64.0
2.1430000000000002,64.2
2.144,64.0
2.145,64.0
2.146,63.8
2.1470000000000002,63.8
2.148,64.0
2.149,63.8
2.15,64.0
2.1510000000000002,63.6
2.152,63.8
2.153,64.2
2.154,63.8
2.1550000000000002,63.6
2.156,63.8
2.157,63.8
2.158,63.6
2.1590000000000003,63.8
2.16,63.8
2.161,63.8
2.162,64.2
2.1630000000000003,64.0
2.164,63.8
2.165,63.8
2.166,63.8
2.1670000000000003,63.8
2.168,63.8
2.169,63.8
2.17,63.8
2.1710000000000003,63.6
2.172,63.8
2.173,63.8
2.174,63.8
2.1750000000000003,63.8
2.176,63.8
2.177,63.8
2.178,63.8
2.179,63.8
2.18,64.0
2.181,63.8
2.182,64.0
2.183,63.6
2.184,63.8
2.185,63.8
2.186,64.0
2.187,63.6
2.188,63.8
2.189,63.8
2.19,63.8
2.191,63.8
2.192,63.8
2.193,63.8
2.194,63.8
2.195,64.0
2.196,64.2
2.197,63.8
2.198,63.6
2.199,64.0
2.2,63.8
2.201,64.2
2.202,63.8
2.203,64.0
2.204,64.0
2.205,63.8
2.206,64.0
2.207,64.0
2.208,64.0
2.209,63.8
2.21,64.2
2.211,64.0
2.212,64.0
2.213,64.0
2.214,63.8
2.215,63.8
2.216,63.8
2.217,63.8
2.218,64.0
2.219,64.0
2.22,64.0
2.221,64.0
2.222,63.8
2.223,63.8
2.224,64.0
2.225,64.2
2.226,63.8
2.227,64.2
2.228,64.0
2.229,63.8
2.23,64.0
2.231,64.2
2.232,64.2
2.233,64.0
2.234,64.2
2.235,64.0
2.236,64.0
2.237,64.0
2.238,64.2
2.239,64.2
2.24,64.2
2.241,64.2
2.242,64.2
2.243,64.2
2.244,64.0
2.245,64.2
2.246,64.2
2.247,64.4
2.248,64.2
2.249,64.2
2.25,64.0
2.251,64.0
2.2520000000000002,64.2
2.253,64.2
2.254,64.2
2.255,64.2
2.2560000000000002,64.2
2.257,64.2
2.258,64.4
2.259,64.2
2.2600000000000002,64.2
2.261,64.4
2.262,64.4
2.263,64.2
2.2640000000000002,64.2
2.265,64.2
2.266,64.4
2.267,64.2
2.2680000000000002,64.4
2.269,64.6
2.27,64.4
2.271,64.4
2.2720000000000002,64.4
2.273,64.4
2.274,64.4
2.275,64.4
2.2760000000000002,64.6
2.277,64.4
2.278,64.4
2.279,64.6
2.2800000000000002,64.4
2.281,64.6
2.282,64.6
2.283,64.6
2.2840000000000003,64.8
2.285,64.8
2.286,64.6
2.287,64.6
2.2880000000000003,64.6
2.289,64.6
2.29,64.6
2.291,64.6
2.2920000000000003,64.6
2.293,64.4
2.294,64.8
2.295,64.8
2.2960000000000003,64.6
2.297,64.6
2.298,64.8
2.299,64.6
2.3000000000000003,64.8
2.301,64.6
2.302,64.6
2.303,64.8
2.3040000000000003,64.6
2.305,65.0
2.306,64.8
2.307,64.8
2.308,64.8
2.309,64.8
2.31,64.8
2.311,65.0
2.312,65.0
2.313,64.8
2.314,65.0
2.315,64.8
2.316,65.2
2.317,65.0
2.318,65.0
2.319,65.0
2.32,65.2
2.321,64.8
2.322,65.2
2.323,65.0
2.324,65.0
2.325,65.2
2.326,65.2
2.327,65.0
2.328,65.0
2.329,65.0
2.33,65.2
2.331,65.2
2.332,65.0
2.333,65.4
2.334,65.0
2.335,65.4
2.336,65.4
2.337,65.2
2.338,65.4
2.339,65.4
2.34,65.4
2.341,65.6
2.342,65.6
2.343,65.2
2.344,65.6
2.345,65.4
2.346,65.6
2.347,65.8
2.348,65.8
2.349,65.6
2.35,65.4
2.351,65.8
2.352,65.8
2.353,65.6
2.354,65.8
2.355,65.6
2.356,65.6
2.357,65.8
2.358,65.8
2.359,65.8
2.36,65.8
2.361,66.0
2.362,65.8
2.363,66.0
2.364,65.8
2.365,65.8
2.366,65.8
2.367,66.2
2.368,66.0
2.369,66.0
2.37,66.2
2.371,66.2
2.372,66.2
2.373,66.2
2.374,66.2
2.375,66.2
2.376,66.2
2.3770000000000002,66.0
2.378,66.2
2.379,66.2
2.38,66.4
2.3810000000000002,66.2
2.382,66.2
2.383,66.4
2.384,66.4
2.3850000000000002,66.4
2.386,66.4
2.387,66.6
2.388,66.4
2.3890000000000002,66.6
2.39,66.4
2.391,66.6
2.392,66.4
2.3930000000000002,66.6
2.394,66.6
2.395,66.8
2.396,66.6
2.3970000000000002,66.6
2.398,66.8
2.399,66.6
2.4,66.8
2.4010000000000002,66.8
2.402,67.0
2.403,66.8
2.404,67.0
2.4050000000000002,66.8
2.406,66.8
2.407,67.0
2.408,67.0
2.4090000000000003,67.0
2.41,67.0
2.411,67.2
2.412,67.2
2.4130000000000003,67.0
2.414,67.2
2.415,67.0
2.416,67.0
2.4170000000000003,67.2
2.418,67.2
2.419,67.2
2.42,67.2
2.4210000000000003,67.2
2.422,67.4
2.423,67.4
2.424,67.4
2.4250000000000003,67.4
2.426,67.4
2.427,67.6
2.428,67.6
2.4290000000000003,67.6
2.43,67.4
2.431,67.4
2.432,67.6
2.433,67.4
2.434,67.6
2.435,67.6
2.436,67.6
2.437,67.6
2.438,67.8
2.439,67.8
2.44,67.8
2.441,68.0
2.442,67.6
2.443,68.0
2.444,68.0
2.445,68.0
2.446,68.2
2.447,68.2
2.448,68.0
2.449,68.0
2.45,68.2
2.451,68.2
2.452,68.0
2.453,68.2
2.454,68.2
2.455,68.2
2.456,68.2
2.457,68.4
2.458,68.2
2.459,68.4
2.46,68.4
2.461,68.4
2.462,68.4
2.463,68.6
2.464,68.8
2.465,68.4
2.466,68.6
2.467,68.6
2.468,68.6
2.469,68.6
2.47,68.8
2.471,68.8
2.472,68.8
2.473,68.6
2.474,68.8
2.475,68.8
2.476,68.8
2.477,68.8
2.478,68.8
2.479,68.8
2.48,69.2
2.481,69.2
2.482,69.0
2.483,69.2
2.484,69.2
2.485,69.2
2.486,69.2
2.487,69.4
2.488,69.0
2.489,69.2
2.49,69.2
2.491,69.0
2.492,69.4
2.493,69.4
2.494,69.4
2.495,69.4
2.496,69.4
2.497,69.2
2.498,69.4
2.499,69.4
2.5,69.6
2.501,69.6
2.5020000000000002,69.4
2.503,69.6
2.504,69.6
2.505,69.8
2.5060000000000002,69.6
2.507,69.8
2.508,69.6
2.509,69.8
2.5100000000000002,69.8
2.511,69.8
2.512,69.8
2.513,70.0
2.5140000000000002,69.8
2.515,69.8
2.516,70.2
2.517,70.4
2.5180000000000002,70.0
2.519,70.2
2.52,69.8
2.521,70.0
2.5220000000000002,70.4
2.523,70.2
2.524,70.0
2.525,70.2
2.5260000000000002,70.4
2.527,70.2
2.528,70.4
2.529,70.4
2.5300000000000002,70.2
2.531,70.4
2.532,70.4
2.533,70.4
2.5340000000000003,70.4
2.535,70.6
2.536,70.6
2.537,70.4
2.5380000000000003,70.4
2.539,70.6
2.54,70.6
2.541,70.4
2.5420000000000003,70.8
2.543,70.6
2.544,70.8
2.545,70.8
2.5460000000000003,70.8
2.547,70.8
2.548,70.6
2.549,71.0
2.5500000000000003,70.8
2.551,70.8
2.552,71.0
2.553,70.8
2.5540000000000003,70.8
2.555,71.0
2.556,71.0
2.557,70.8
2.5580000000000003,71.0
2.559,71.0
2.56,70.8
2.561,71.0
2.562,71.0
2.563,71.0
2.564,71.2
2.565,71.0
2.566,71.4
2.567,71.2
2.568,71.2
2.569,71.4
2.57,71.2
2.571,71.2
2.572,71.4
2.573,71.2
2.574,71.4
2.575,71.2
2.576,71.4
2.577,71.4
2.578,71.4
2.579,71.4
2.58,71.6
2.581,71.6
2.582,71.6
2.583,71.4
2.584,71.6
2.585,71.6
2.586,71.6
2.587,71.6
2.588,71.6
2.589,71.4
2.59,71.8
2.591,71.8
2.592,71.6
2.593,71.8
2.594,71.8
2.595,71.8
2.596,72.0
2.597,72.0
2.598,71.8
2.599,71.8
2.6,71.8
2.601,71.8
2.602,72.0
2.603,72.0
2.604,72.0
2.605,72.0
2.606,72.0
2.607,72.0
2.608,72.0
2.609,72.0
2.61,72.0
2.611,72.0
2.612,71.8
2.613,72.0
2.614,72.0
2.615,72.2
2.616,72.2
2.617,72.2
2.618,72.0
2.619,72.2
2.62,72.2
2.621,72.4
2.622,72.2
2.623,72.2
2.624,72.2
2.625,72.2
2.626,72.2
2.6270000000000002,72.4
2.628,72.4
2.629,72.0
2.63,72.4
2.6310000000000002,72.2
2.632,72.4
2.633,72.2
2.634,72.4
2.6350000000000002,72.4
2.636,72.4
2.637,72.4
2.638,72.6
2.6390000000000002,72.6
2.64,72.4
2.641,72.6
2.642,72.4
2.6430000000000002,72.6
2.644,72.4
2.645,72.6
2.646,72.4
2.6470000000000002,72.4
2.648,72.6
2.649,72.6
2.65,72.4
2.6510000000000002,72.4
2.652,72.4
2.653,72.6
2.654,72.6
2.6550000000000002,72.6
2.656,72.4
2.657,72.6
2.658,72.8
2.6590000000000003,72.4
2.66,72.6
2.661,72.6
2.662,72.8
2.6630000000000003,72.6
2.664,72.8
2.665,72.8
2.666,72.8
2.6670000000000003,72.6
2.668,72.8
2.669,72.8
2.67,72.6
2.6710000000000003,72.8
2.672,72.8
2.673,72.8
2.674,72.8
2.6750000000000003,72.6
2.676,72.8
2.677,72.8
2.678,72.8
2.6790000000000003,72.8
2.68,72.8
2.681,73.0
2.682,72.8
2.6830000000000003,73.0
2.684,72.8
2.685,72.8
2.686,72.8
2.6870000000000003,73.0
2.688,72.8
2.689,72.6
2.69,73.0
2.691,73.0
2.692,72.8
2.693,73.0
2.694,72.8
2.695,73.0
2.696,72.8
2.697,73.0
2.698,72.8
2.699,72.8
2.7,73.0
2.701,73.0
2.702,73.0
2.703,73.0
2.704,72.8
2.705,73.0
2.706,73.2
2.707,73.0
2.708,73.0
2.709,72.8
2.71,73.0
2.711,73.0
2.712,73.0
2.713,73.0
2.714,73.2
2.715,73.0
2.716,72.8
2.717,73.0
2.718,72.8
2.719,73.0
2.72,72.8
2.721,73.0
2.722,73.0
2.723,73.0
2.724,72.8
2.725,73.0
2.726,72.8
2.727,72.8
2.728,72.8
2.729,73.0
2.73,73.0
2.731,72.8
2.732,72.8
2.733,72.8
2.734,73.0
2.735,72.8
2.736,73.0
2.737,73.0
2.738,73.0
2.739,72.8
2.74,72.8
2.741,72.8
2.742,73.0
2.743,73.0
2.744,72.8
2.745,72.8
2.746,72.6
2.747,72.8
2.748,72.8
2.749,72.8
2.75,72.8
2.751,72.6
2.7520000000000002,72.8
2.753,72.8
2.754,73.0
2.755,72.8
2.7560000000000002,72.8
2.757,72.8
2.758,72.6
2.759,72.6
2.7600000000000002,72.6
2.761,72.6
2.762,72.8
2.763,72.8
2.7640000000000002,72.8
2.765,72.8
2.766,72.6
2.767,72.8
2.7680000000000002,72.6
2.769,72.8
2.77,72.8
2.771,72.8
2.7720000000000002,72.6
2.773,72.4
2.774,72.8
2.775,72.6
2.7760000000000002,72.6
2.777,72.6
2.778,72.6
2.779,72.8
2.7800000000000002,72.6
2.781,72.6
2.782,72.8
2.783,72.6
2.7840000000000003,72.6
2.785,72.6
2.786,72.4
2.787,72.2
2.7880000000000003,72.2
2.789,72.6
2.79,72.4
2.791,72.4
2.7920000000000003,72.2
2.793,72.4
2.794,72.4
2.795,72.4
2.7960000000000003,72.4
2.797,72.2
2.798,72.2
2.799,72.4
2.8000000000000003,72.4
2.801,72.4
2.802,72.2
2.803,72.2
2.8040000000000003,72.2
2.805,72.4
2.806,72.4
2.807,72.4
2.8080000000000003,72.2
2.809,72.2
2.81,72.0
2.811,72.0
2.8120000000000003,72.0
2.813,72.0
2.814,72.0
2.815,72.0
2.816,72.0
2.817,71.8
2.818,72.0
2.819,72.2
2.82,72.2
2.821,72.0
2.822,71.8
2.823,71.8
2.824,71.8
2.825,72.0
2.826,71.8
2.827,71.8
2.828,72.0
2.829,71.8
2.83,71.8
2.831,71.8
2.832,72.0
2.833,72.0
2.834,72.0
2.835,71.8
2.836,71.6
2.837,72.0
2.838,71.8
2.839,71.6
2.84,71.6
2.841,71.6
2.842,71.6
2.843,71.6
2.844,71.4
2.845,71.6
2.846,71.6
2.847,71.4
2.848,71.2
2.849,71.6
2.85,71.4
2.851,71.4
2.852,71.6
2.853,71.4
2.854,71.2
2.855,71.6
2.856,71.6
2.857,71.2
2.858,71.2
2.859,71.2
2.86,71.4
2.861,71.4
2.862,71.0
2.863,71.2
2.864,71.2
2.865,71.0
2.866,71.2
2.867,71.0
2.868,71.0
2.869,71.0
2.87,71.0
2.871,71.0
2.872,71.0
2.873,71.0
2.874,71.0
2.875,71.0
2.876,70.8
2.8770000000000002,71.0
2.878,71.0
2.879,70.8
2.88,70.8
2.8810000000000002,71.0
2.882,71.0
2.883,70.8
2.884,70.8
2.8850000000000002,70.6
2.886,70.6
2.887,70.6
2.888,70.6
2.8890000000000002,70.8
2.89,70.6
2.891,70.6
2.892,70.6
2.8930000000000002,70.6
2.894,70.4
2.895,70.4
2.896,70.4
2.8970000000000002,70.2
2.898,70.4
2.899,70.4
2.9,70.4
2.9010000000000002,70.4
2.902,70.2
2.903,70.4
2.904,70.4
2.9050000000000002,70.4
2.906,70.4
2.907,70.2
2.908,70.0
2.9090000000000003,70.0
2.91,70.0
2.911,70.0
2.912,70.2
2.9130000000000003,70.0
2.914,70.0
2.915,69.8
2.916,69.8
2.9170000000000003,69.8
2.918,70.0
2.919,69.8
2.92,70.0
2.9210000000000003,69.8
2.922,69.8
2.923,69.6
2.924,69.8
2.9250000000000003,69.6
2.926,69.4
2.927,69.8
2.928,69.6
2.9290000000000003,69.4
2.93,69.4
2.931,69.4
2.932,69.6
2.9330000000000003,69.6
2.934,69.6
2.935,69.4
2.936,69.4
2.9370000000000003,69.4
2.938,69.2
2.939,69.4
2.94,69.2
2.9410000000000003,69.4
2.942,69.2
2.943,69.0
2.944,69.4
2.945,69.2
2.946,69.0
2.947,69.0
2.948,68.8
2.949,69.0
2.95,69.0
2.951,68.8
2.952,68.8
2.953,68.8
2.954,69.0
2.955,69.0
2.956,68.8
2.957,68.6
2.958,68.8
2.959,68.8
2.96,68.6
2.961,68.6
2.962,68.6
2.963,68.8
2.964,68.6
2.965,68.6
2.966,68.4
2.967,68.6
2.968,68.4
2.969,68.4
2.97,68.4
2.971,68.2
2.972,68.4
2.973,68.4
2.974,68.4
2.975,68.4
2.976,68.2
2.977,68.4
2.978,68.2
2.979,68.2
2.98,68.2
2.981,68.0
2.982,68.0
2.983,68.0
2.984,68.0
2.985,68.2
2.986,67.8
2.987,67.8
2.988,68.0
2.989,67.8
2.99,67.8
2.991,67.8
2.992,67.8
2.993,67.8
2.994,67.6
2.995,67.6
2.996,67.6
2.997,67.4
2.998,67.6
2.999,67.6
3.0,67.6
3.001,67.6
3.0020000000000002,67.4
3.003,67.4
3.004,67.4
3.005,67.4
3.0060000000000002,67.2
3.007,67.4
3.008,67.2
3.009,67.2
3.0100000000000002,67.4
3.011,67.4
3.012,67.2
3.013,67.2
3.0140000000000002,67.2
3.015,67.2
3.016,67.2
3.017,67.0
3.0180000000000002,67.0
3.019,67.0
3.02,67.2
3.021,67.0
3.0220000000000002,67.0
3.023,67.0
3.024,66.8
3.025,66.6
3.0260000000000002,66.8
3.027,66.6
3.028,66.8
3.029,66.6
3.0300000000000002,66.8
3.031,66.6
3.032,66.6
3.033,66.6
3.0340000000000003,66.6
3.035,66.6
3.036,66.4
3.037,66.6
3.0380000000000003,66.6
3.039,66.6
3.04,66.4
3.041,66.4
3.0420000000000003,66.4
3.043,66.2
3.044,66.4
3.045,66.4
3.0460000000000003,66.2
3.047,66.4
3.048,66.2
3.049,66.2
3.0500000000000003,66.2
3.051,66.2
3.052,66.2
3.053,66.0
3.0540000000000003,66.2
3.055,66.0
3.056,66.0
3.057,66.0
3.0580000000000003,66.0
3.059,65.8
3.06,66.0
3.061,66.0
3.0620000000000003,66.0
3.063,65.8
3.064,65.8
3.065,66.0
3.0660000000000003,65.8
3.067,65.8
3.068,65.8
3.069,66.0
3.0700000000000003,65.6
3.071,65.6
3.072,65.6
3.073,65.8
3.074,65.4
3.075,65.8
3.076,65.4
3.077,65.6
3.078,65.4
3.079,65.6
3.08,65.6
3.081,65.4
3.082,65.4
3.083,65.2
3.084,65.4
3.085,65.2
3.086,65.4
3.087,65.4
3.088,65.2
3.089,65.0
3.09,65.2
3.091,65.2
3.092,65.2
3.093,65.0
3.094,65.2
3.095,65.0
3.096,65.0
3.097,65.0
3.098,65.2
3.099,65.2
3.1,64.8
3.101,65.2
3.102,65.0
3.103,65.2
3.104,65.0
3.105,65.0
3.106,65.0
3.107,64.8
3.108,64.8
3.109,64.6
3.11,65.0
3.111,64.8
3.112,64.8
3.113,64.6
3.114,64.6
3.115,64.8
3.116,64.8
3.117,64.6
3.118,64.6
3.119,64.6
3.12,64.6
3.121,64.6
3.122,64.8
3.123,64.6
3.124,64.6
3.125,64.6
3.126,64.6
3.1270000000000002,64.6
3.128,64.4
3.129,64.6
3.13,64.6
3.1310000000000002,64.6
3.132,64.6
3.133,64.6
3.134,64.4
3.1350000000000002,64.4
3.136,64.6
3.137,64.4
3.138,64.4
3.1390000000000002,64.6
3.14,64.6
3.141,64.2
3.142,64.4
3.1430000000000002,64.4
3.144,64.4
3.145,64.2
3.146,64.4
3.1470000000000002,64.2
3.148,64.2
3.149,64.2
3.15,64.2
3.1510000000000002,64.2
3.152,64.2
3.153,64.4
3.154,64.2
3.1550000000000002,64.2
3.156,64.2
3.157,64.2
3.158,64.0
3.1590000000000003,64.4
3.16,64.2
3.161,64.0
3.162,64.2
3.1630000000000003,64.2
3.164,64.2
3.165,64.2
3.166,64.2
3.1670000000000003,64.2
3.168,64.2
3.169,64.0
3.17,64.2
3.1710000000000003,64.0
3.172,64.2
3.173,64.0
3.174,64.2
3.1750000000000003,64.2
3.176,64.2
3.177,64.0
3.178,64.2
3.1790000000000003,64.0
3.18,64.2
3.181,64.2
3.182,64.0
3.1830000000000003,64.0
3.184,64.0
3.185,64.2
3.186,64.2
3.1870000000000003,63.8
3.188,63.8
3.189,64.0
3.19,64.0
3.1910000000000003,64.0
3.192,64.0
3.193,63.8
3.194,63.8
3.1950000000000003,63.8
3.196,64.0
3.197,63.8
3.198,64.0
3.1990000000000003,63.8
3.2,64.0
3.201,64.2
3.202,64.0
3.203,64.0
3.204,63.6
3.205,64.0
3.206,63.8
3.207,64.0
3.208,63.8
3.209,63.8
3.21,63.8
3.211,64.0
3.212,63.8
3.213,63.6
3.214,63.8
3.215,63.8
3.216,63.8
3.217,63.8
3.218,63.8
3.219,63.8
3.22,63.8
3.221,63.8
3.222,63.8
3.223,63.6
3.224,63.8
3.225,63.8
3.226,63.8
3.227,63.8
3.228,64.0
3.229,64.0
3.23,63.8
3.231,63.8
3.232,63.8
3.233,64.0
3.234,64.0
3.235,63.8
3.236,63.8
3.237,63.8
3.238,63.8
3.239,63.8
3.24,63.6
3.241,63.8
3.242,63.8
3.243,63.8
3.244,63.8
3.245,63.8
3.246,63.8
3.247,63.8
3.248,63.8
3.249,63.8
3.25,63.8
3.251,63.8
3.2520000000000002,63.8
3.253,63.6
3.254,63.6
3.255,63.8
3.2560000000000002,64.0
3.257,63.8
3.258,63.8
3.259,63.8
3.2600000000000002,63.8
3.261,64.0
3.262,63.8
3.263,63.8
3.2640000000000002,64.2
3.265,64.0
3.266,64.0
3.267,63.8
3.2680000000000002,63.6
3.269,63.8
3.27,63.8
3.271,64.0
3.2720000000000002,64.0
3.273,64.0
3.274,63.8
3.275,64.2
3.2760000000000002,63.8
3.277,63.8
3.278,64.0
3.279,64.0
3.2800000000000002,64.2
3.281,63.8
3.282,63.8
3.283,64.0
3.2840000000000003,64.2
3.285,64.2
3.286,64.0
3.287,63.8
3.2880000000000003,64.0
3.289,64.2
3.29,64.0
3.291,64.0
3.2920000000000003,64.0
3.293,64.0
3.294,64.0
3.295,64.2
3.2960000000000003,64.2
3.297,64.2
3.298,64.0
3.299,64.0
3.3000000000000003,64.2
3.301,64.2
3.302,64.2
3.303,64.0
3.3040000000000003,64.2
3.305,64.0
3.306,64.0
3.307,64.0
3.3080000000000003,64.2
3.309,64.2
3.31,64.2
3.311,64.0
3.3120000000000003,64.0
3.313,64.2
3.314,64.2
3.315,64.2
3.3160000000000003,64.2
3.317,64.2
3.318,64.2
3.319,64.2
3.3200000000000003,64.2
3.321,64.2
3.322,64.2
3.323,64.4
3.3240000000000003,64.2
3.325,64.2
3.326,64.2
3.327,64.4
3.3280000000000003,64.4
3.329,64.6
3.33,64.4
3.331,64.4
3.332,64.4
3.333,64.4
3.334,64.6
3.335,64.4
3.336,64.2
3.337,64.6
3.338,64.6
3.339,64.2
3.34,64.4
3.341,64.6
3.342,64.6
3.343,64.2
3.344,64.6
3.345,64.2
3.346,64.4
3.347,64.6
3.348,64.6
3.349,64.6
3.35,64.6
3.351,64.8
3.352,64.4
3.353,64.6
3.354,64.6
3.355,64.8
3.356,64.6
3.357,64.8
3.358,64.8
3.359,64.8
3.36,64.8
3.361,64.8
3.362,64.8
3.363,64.8
3.364,64.8
3.365,65.0
3.366,65.0
3.367,64.8
3.368,65.0
3.369,65.0
3.37,65.0
3.371,64.8
3.372,65.0
3.373,65.2
3.374,65.0
3.375,65.0
3.376,65.0
3.3770000000000002,65.0
3.378,65.0
3.379,64.8
3.38,65.0
3.3810000000000002,64.8
3.382,65.0
3.383,65.2
3.384,65.2
3.3850000000000002,65.0
3.386,65.2
3.387,65.2
3.388,65.2
3.3890000000000002,65.2
3.39,65.0
3.391,65.2
3.392,65.0
3.3930000000000002,65.2
3.394,65.2
3.395,65.2
3.396,65.4
3.3970000000000002,65.2
3.398,65.4
3.399,65.2
3.4,65.4
3.4010000000000002,65.4
3.402,65.2
3.403,65.4
3.404,65.4
3.4050000000000002,65.4
3.406,65.4
3.407,65.6
3.408,65.6
3.4090000000000003,65.8
3.41,65.6
3.411,65.6
3.412,65.6
3.4130000000000003,65.6
3.414,65.8
3.415,65.8
3.416,65.8
3.4170000000000003,65.6
3.418,65.6
3.419,65.8
3.42,65.6
3.4210000000000003,65.8
3.422,65.8
3.423,65.8
3.424,65.8
3.4250000000000003,65.8
3.426,66.0
3.427,66.0
3.428,66.0
3.4290000000000003,66.0
3.43,66.0
3.431,66.2
3.432,65.8
3.4330000000000003,66.2
3.434,66.0
3.435,66.2
3.436,66.2
3.4370000000000003,66.2
3.438,66.2
3.439,66.0
3.44,66.2
3.4410000000000003,66.2
3.442,66.2
3.443,66.4
3.444,66.2
3.4450000000000003,66.4
3.446,66.4
3.447,66.4
3.448,66.4
3.4490000000000003,66.4
3.45,66.4
3.451,66.4
3.452,66.4
3.4530000000000003,66.6
3.454,66.6
3.455,66.8
3.456,66.8
3.457,66.8
3.458,66.8
3.459,66.6
3.46,66.6
3.461,66.6
3.462,66.8
3.463,66.8
3.464,67.0
3.465,66.8
3.466,66.8
3.467,66.8
3.468,66.8
3.469,66.8
3.47,67.0
3.471,67.0
3.472,67.0
3.473,67.2
3.474,67.2
3.475,67.0
3.476,66.8
3.477,67.2
3.478,67.2
3.479,67.2
3.48,67.2
3.481,67.2
3.482,67.4
3.483,67.2
3.484,67.4
3.485,67.4
3.486,67.4
3.487,67.4
3.488,67.6
3.489,67.6
3.49,67.4
3.491,67.6
3.492,67.4
3.493,67.6
3.494,67.6
3.495,67.6
3.496,67.8
3.497,67.6
3.498,67.8
3.499,67.6
3.5,68.0
3.501,67.8
3.5020000000000002,67.8
3.503,67.8
3.504,67.8
3.505,68.0
3.5060000000000002,68.0
3.507,68.0
3.508,68.0
3.509,67.8
3.5100000000000002,68.0
3.511,68.0
3.512,68.0
3.513,68.2
3.5140000000000002,68.2
3.515,68.4
3.516,68.2
3.517,68.2
3.5180000000000002,68.2
3.519,68.2
3.52,68.4
3.521,68.4
3.5220000000000002,68.4
3.523,68.4
3.524,68.4
3.525,68.4
3.5260000000000002,68.6
3.527,68.6
3.528,68.4
3.529,68.6
3.5300000000000002,68.8
3.531,68.8
3.532,68.6
3.533,68.6
3.5340000000000003,68.8
3.535,68.8
3.536,68.8
3.537,69.0
3.5380000000000003,68.8
3.539,69.0
3.54,68.8
3.541,68.8
3.5420000000000003,68.8
3.543,69.0
3.544,69.0
3.545,68.8
3.5460000000000003,69.0
3.547,69.0
3.548,69.0
3.549,69.2
3.5500000000000003,69.0
3.551,69.2
3.552,69.2
3.553,69.4
3.5540000000000003,69.2
3.555,69.2
3.556,69.4
3.557,69.4
3.5580000000000003,69.4
3.559,69.4
3.56,69.6
3.561,69.8
3.5620000000000003,69.6
3.563,69.8
3.564,69.6
3.565,69.4
3.5660000000000003,69.8
3.567,69.8
3.568,69.8
3.569,69.8
3.5700000000000003,69.8
3.571,70.0
3.572,69.8
3.573,69.6
3.5740000000000003,70.0
3.575,70.0
3.576,70.2
3.577,70.0
3.5780000000000003,70.0
3.579,70.0
3.58,70.0
3.581,70.4
3.5820000000000003,70.4
3.583,70.0
3.584,70.2
3.585,70.4
3.586,70.0
3.587,70.4
3.588,70.2
3.589,70.2
3.59,70.2
3.591,70.2
3.592,70.4
3.593,70.6
3.594,70.4
3.595,70.4
3.596,70.4
3.597,70.6
3.598,70.6
3.599,70.6
3.6,70.4
3.601,70.4
3.602,70.6
3.603,70.6
3.604,70.6
3.605,70.6
3.606,70.8
3.607,71.0
3.608,70.8
3.609,70.6
3.61,70.8
3.611,71.0
3.612,71.0
3.613,71.0
3.614,71.0
3.615,71.0
3.616,71.0
3.617,71.0
3.618,71.0
3.619,70.8
3.62,71.0
3.621,71.0
3.622,71.0
3.623,70.8
3.624,71.2
3.625,71.0
3.626,71.0
3.6270000000000002,71.2
3.628,71.4
3.629,71.2
3.63,71.2
3.6310000000000002,71.2
3.632,71.2
3.633,71.2
3.634,71.6
3.6350000000000002,71.4
3.636,71.2
3.637,71.2
3.638,71.4
3.6390000000000002,71.2
3.64,71.4
3.641,71.4
3.642,71.2
3.6430000000000002,71.4
3.644,71.6
3.645,71.6
3.646,71.4
3.6470000000000002,71.6
3.648,72.0
3.649,71.2
3.65,71.6
3.6510000000000002,71.8
3.652,71.6
3.653,71.6
3.654,72.0
3.6550000000000002,71.8
3.656,71.8
3.657,72.0
3.658,72.0
3.6590000000000003,71.8
3.66,72.0
3.661,72.0
3.662,71.8
3.6630000000000003,72.0
3.664,71.8
3.665,72.0
3.666,72.0
3.6670000000000003,72.0
3.668,72.0
3.669,72.0
3.67,72.0
3.6710000000000003,72.0
3.672,72.0
3.673,72.2
3.674,72.2
3.6750000000000003,72.0
3.676,72.2
3.677,72.2
3.678,72.0
3.6790000000000003,72.0
3.68,72.4
3.681,72.2
3.682,72.0
3.6830000000000003,72.0
3.684,72.2
3.685,72.2
3.686,72.2
3.6870000000000003,72.2
3.688,72.2
3.689,72.2
3.69,72.2
3.6910000000000003,72.4
3.692,72.6
3.693,72.4
3.694,72.2
3.6950000000000003,72.4
3.696,72.4
3.697,72.4
3.698,72.4
3.6990000000000003,72.4
3.7,72.4
3.701,72.2
3.702,72.4
3.7030000000000003,72.6
3.704,72.4
3.705,72.4
3.706,72.6
3.7070000000000003,72.4
3.708,72.4
3.709,72.6
3.71,72.8
3.7110000000000003,72.4
3.712,72.6
3.713,72.6
3.714,72.6
3.715,72.6
3.716,72.6
3.717,72.6
3.718,72.6
3.719,72.8
3.72,72.8
3.721,72.6
3.722,72.4
3.723,72.8
3.724,72.8
3.725,72.8
3.726,72.8
3.727,72.8
3.728,72.8
3.729,72.6
3.73,72.8
3.731,72.8
3.732,72.8
3.733,72.8
3.734,72.8
3.735,72.6
3.736,72.8
3.737,73.0
3.738,72.8
3.739,72.8
3.74,73.0
3.741,72.6
3.742,72.8
3.743,72.8
3.744,73.0
3.745,72.8
3.746,72.8
3.747,73.0
3.748,72.8
3.749,72.8
3.75,72.8
3.751,73.0
3.7520000000000002,72.8
3.753,73.0
3.754,73.0
3.755,73.0
3.7560000000000002,73.0
3.757,73.0
3.758,72.8
3.759,73.0
3.7600000000000002,73.0
3.761,73.0
3.762,73.0
3.763,73.0
3.7640000000000002,73.0
3.765,73.0
3.766,73.0
3.767,73.0
3.7680000000000002,73.0
3.769,73.0
3.77,73.0
3.771,73.2
3.7720000000000002,73.0
3.773,73.0
3.774,73.2
3.775,73.0
3.7760000000000002,73.0
3.777,73.0
3.778,72.8
3.779,73.0
3.7800000000000002,73.0
3.781,72.8
3.782,72.8
3.783,73.0
3.7840000000000003,72.8
3.785,73.0
3.786,73.0
3.787,72.8
3.7880000000000003,72.8
3.789,72.8
3.79,72.8
3.791,72.8
3.7920000000000003,73.0
3.793,73.0
3.794,72.8
3.795,73.0
3.7960000000000003,73.0
3.797,73.0
3.798,72.8
3.799,73.0
3.8000000000000003,73.0
3.801,73.0
3.802,73.0
3.803,73.0
3.8040000000000003,72.8
3.805,73.0
3.806,72.8
3.807,72.8
3.8080000000000003,72.6
3.809,73.0
3.81,73.0
3.811,72.8
3.8120000000000003,72.8
3.813,72.8
3.814,72.8
3.815,72.8
3.8160000000000003,72.8
3.817,72.8
3.818,73.0
3.819,72.8
3.8200000000000003,72.8
3.821,72.6
3.822,73.0
3.823,72.8
3.8240000000000003,72.8
3.825,72.8
3.826,72.8
3.827,72.8
3.8280000000000003,72.6
3.829,73.0
3.83,72.6
3.831,72.8
3.8320000000000003,72.8
3.833,72.8
3.834,72.8
3.835,72.8
3.8360000000000003,72.6
3.837,72.6
3.838,72.6
3.839,72.6
3.84,72.4
3.841,72.6
3.842,72.6
3.843,72.6
3.844,72.4
3.845,72.4
3.846,72.6
3.847,72.4
3.848,72.4
3.849,72.4
3.85,72.4
3.851,72.4
3.852,72.4
3.853,72.4
3.854,72.4
3.855,72.6
3.856,72.4
3.857,72.4
3.858,72.4
3.859,72.6
3.86,72.4
3.861,72.4
3.862,72.2
3.863,72.4
3.864,72.2
3.865,72.6
3.866,72.2
3.867,72.4
3.868,72.4
3.869,72.2
3.87,72.2
3.871,72.4
3.872,72.4
3.873,72.2
3.874,72.2
3.875,72.2
3.876,72.0
3.8770000000000002,72.0
3.878,72.0
3.879,72.2
3.88,72.0
3.8810000000000002,72.0
3.882,72.2
3.883,72.0
3.884,72.2
3.8850000000000002,72.0
3.886,72.0
3.887,71.8
3.888,71.8
3.8890000000000002,72.0
3.89,72.0
3.891,72.0
3.892,71.8
3.8930000000000002,72.0
3.894,72.0
3.895,72.0
3.896,72.0
3.8970000000000002,71.8
3.898,72.0
3.899,71.6
3.9,71.6
3.9010000000000002,71.6
3.902,72.0
3.903,71.8
3.904,71.8
3.9050000000000002,71.4
3.906,71.6
3.907,71.6
3.908,71.6
3.9090000000000003,71.8
3.91,71.6
3.911,71.4
3.912,71.4
3.9130000000000003,71.4
3.914,71.4
3.915,71.4
3.916,71.4
3.9170000000000003,71.4
3.918,71.4
3.919,71.2
3.92,71.2
3.9210000000000003,71.2
3.922,71.2
3.923,71.4
3.924,71.4
3.9250000000000003,71.4
3.926,71.2
3.927,71.0
3.928,71.0
3.9290000000000003,70.8
3.93,71.0
3.931,71.2
3.932,71.0
3.9330000000000003,70.8
3.934,71.0
3.935,71.2
3.936,71.0
3.9370000000000003,70.8
3.938,70.8
3.939,70.8
3.94,71.0
3.9410000000000003,70.8
3.942,71.0
3.943,70.8
3.944,70.8
3.9450000000000003,71.0
3.946,70.6
3.947,70.8
3.948,70.6
3.9490000000000003,70.8
3.95,70.6
3.951,70.6
3.952,70.6
3.9530000000000003,70.6
3.954,70.6
3.955,70.6
3.956,70.6
3.9570000000000003,70.4
3.958,70.6
3.959,70.4
3.96,70.4
3.9610000000000003,70.2
3.962,70.4
3.963,70.4
3.964,70.4
3.9650000000000003,70.2
3.966,70.4
3.967,70.4
3.968,70.4
3.969,70.2
3.97,70.2
3.971,70.0
3.972,70.4
3.973,70.2
3.974,70.0
3.975,70.0
3.976,70.0
3.977,70.0
3.978,70.0
3.979,69.8
3.98,69.8
3.981,69.8
3.982,69.8
3.983,70.0
3.984,69.6
3.985,69.8
3.986,69.6
3.987,69.6
3.988,69.8
3.989,69.8
3.99,69.8
3.991,69.6
3.992,69.6
3.993,69.6
3.994,69.6
3.995,69.6
3.996,69.4
3.997,69.4
3.998,69.4
3.999,69.2
4.0,69.4
4.001,69.2
4.002,69.2
4.003,69.2
4.0040000000000004,69.2
4.005,69.2
4.006,69.2
4.007,69.0
4.008,69.2
4.009,69.2
4.01,69.0
4.011,69.0
4.0120000000000005,69.0
4.013,69.0
4.014,69.0
4.015,68.8
4.016,68.8
4.017,68.8
4.018,68.8
4.019,68.8
4.0200000000000005,68.6
4.021,68.6
4.022,68.8
4.023,68.8
4.024,68.6
4.025,68.8
4.026,68.8
4.027,68.8
4.0280000000000005,68.4
4.029,68.4
4.03,68.4
4.031,68.4
4.032,68.4
4.033,68.6
4.034,68.2
4.035,68.4
4.0360000000000005,68.2
4.037,68.4
4.038,68.2
4.039,68.2
4.04,68.4
4.041,68.2
4.042,68.0
4.043,68.2
4.0440000000000005,68.0
4.045,68.0
4.046,68.0
4.047,68.0
4.048,67.8
4.049,67.8
4.05,68.0
4.051,67.8
4.0520000000000005,67.8
4.053,67.8
4.054,68.0
4.055,67.6
4.056,67.6
4.057,67.6
4.058,67.8
4.059,67.8
4.0600000000000005,67.6
4.061,67.4
4.062,67.6
4.063,67.6
4.064,67.6
4.065,67.4
4.066,67.6
4.067,67.4
4.0680000000000005,67.4
4.069,67.2
4.07,67.2
4.071,67.4
4.072,67.2
4.073,67.2
4.074,67.2
4.075,67.2
4.0760000000000005,67.2
4.077,67.2
4.078,67.0
4.079,67.2
4.08,67.2
4.081,67.2
4.082,67.0
4.083,66.8
4.0840000000000005,67.0
4.085,66.8
4.086,66.6
4.087,66.8
4.088,66.8
4.089,66.8
4.09,66.8
4.091,66.8
4.0920000000000005,66.8
4.093,66.6
4.094,66.8
4.095,66.6
4.096,66.6
4.097,66.6
4.098,66.4
4.099,66.6
4.1,66.4
4.101,66.4
4.102,66.4
4.103,66.2
4.104,66.4
4.105,66.6
4.106,66.4
4.107,66.2
4.108,66.4
4.109,66.0
4.11,66.2
4.111,66.2
4.112,66.4
4.113,66.2
4.114,66.0
4.115,66.2
4.116,66.0
4.117,65.8
4.118,66.0
4.119,66.2
4.12,66.2
4.121,66.0
4.122,65.8
4.123,66.0
4.124,65.8
4.125,66.0
4.126,66.0
4.127,65.8
4.128,65.8
4.1290000000000004,65.8
4.13,65.8
4.131,65.8
4.132,65.6
4.133,65.8
4.134,65.6
4.135,65.6
4.136,65.8
4.1370000000000005,65.6
4.138,65.4
4.139,65.4
4.14,65.6
4.141,65.2
4.142,65.6
4.143,65.8
4.144,65.2
4.1450000000000005,65.4
4.146,65.4
4.147,65.2
4.148,65.4
4.149,65.4
4.15,65.4
4.151,65.2
4.152,65.4
4.1530000000000005,65.2
4.154,65.2
4.155,65.2
4.156,65.2
4.157,65.0
4.158,65.2
4.159,65.0
4.16,65.2
4.1610000000000005,65.0
4.162,65.0
4.163,65.0
4.164,65.2
4.165,64.8
4.166,65.0
4.167,64.8
4.168,65.0
4.1690000000000005,64.8
4.17,65.0
4.171,65.0
4.172,64.8
4.173,64.6
4.174,64.8
4.175,65.0
4.176,65.0
4.1770000000000005,64.6
4.178,64.8
4.179,64.8
4.18,64.8
4.181,64.8
4.182,64.4
4.183,64.6
4.184,64.6
4.1850000000000005,64.6
4.186,64.6
4.187,64.6
4.188,64.6
4.189,64.4
4.19,64.6
4.191,64.8
4.192,64.6
4.1930000000000005,64.6
4.194,64.4
4.195,64.6
4.196,64.4
4.197,64.4
4.198,64.4
4.199,64.6
4.2,64.4
4.2010000000000005,64.4
4.202,64.4
4.203,64.2
4.204,64.2
4.205,64.4
4.206,64.4
4.207,64.4
4.208,64.2
4.2090000000000005,64.2
4.21,64.4
4.211,64.4
4.212,64.2
4.213,64.2
4.214,64.6
4.215,64.4
4.216,64.4
4.2170000000000005,64.0
4.218,64.2
4.219,64.2
4.22,64.2
4.221,64.4
4.222,64.2
4.223,64.2
4.224,64.0
4.225,64.2
4.226,64.0
4.227,64.4
4.228,64.2
4.229,64.2
4.23,64.0
4.231,64.0
4.232,64.2
4.233,64.2
4.234,64.0
4.235,64.2
4.236,64.0
4.237,64.0
4.238,64.2
4.239,64.2
4.24,64.2
4.241,64.2
4.242,64.2
4.243,64.0
4.244,64.0
4.245,64.2
4.246,64.2
4.247,63.8
4.248,63.8
4.249,64.0
4.25,64.0
4.251,64.0
4.252,64.2
4.253,64.0
4.2540000000000004,64.0
4.255,64.2
4.256,64.2
4.257,63.8
4.258,63.8
4.259,64.0
4.26,63.8
4.261,64.0
4.2620000000000005,63.8
4.263,64.0
4.264,64.0
4.265,64.0
4.266,63.8
4.267,64.2
4.268,64.0
4.269,64.0
4.2700000000000005,64.2
4.271,63.8
4.272,63.8
4.273,63.6
4.274,64.0
4.275,64.0
4.276,63.8
4.277,63.8
4.2780000000000005,63.8
4.279,63.8
4.28,64.0
4.281,63.6
4.282,63.8
4.283,64.0
4.284,63.8
4.285,63.8
4.2860000000000005,64.0
4.287,64.0
4.288,63.8
4.289,63.8
4.29,63.8
4.291,63.8
4.292,63.8
4.293,63.6
4.2940000000000005,63.8
4.295,63.8
4.296,63.8
4.297,63.8
4.298,63.8
4.299,63.8
4.3,63.8
4.301,63.8
4.3020000000000005,63.6
4.303,63.8
4.304,64.2
4.305,64.0
4.306,63.8
4.307,63.8
4.308,63.8
4.309,63.8
4.3100000000000005,63.6
4.311,63.6
4.312,64.0
4.313,64.0
4.314,63.8
4.315,63.6
4.316,63.8
4.317,63.8
4.3180000000000005,63.8
4.319,63.8
4.32,63.8
4.321,64.0
4.322,63.8
4.323,63.6
4.324,63.8
4.325,63.6
4.3260000000000005,64.2
4.327,63.8
4.328,64.0
4.329,64.0
4.33,63.8
4.331,64.0
4.332,63.8
4.333,63.8
4.3340000000000005,64.2
4.335,63.8
4.336,63.8
4.337,64.0
4.338,64.0
4.339,63.8
4.34,64.2
4.341,63.8
4.3420000000000005,64.0
4.343,64.0
4.344,63.8
4.345,64.0
4.346,63.8
4.347,64.2
4.348,64.0
4.349,63.8
4.3500000000000005,64.2
4.351,64.0
4.352,64.0
4.353,64.2
4.354,64.2
4.355,64.2
4.356,64.2
4.357,64.0
4.358,63.8
4.359,64.2
4.36,64.0
4.361,64.0
4.362,64.2
4.363,64.0
4.364,64.2
4.365,64.0
4.366,64.2
4.367,64.2
4.368,64.2
4.369,64.2
4.37,64.0
4.371,64.0
4.372,64.0
4.373,64.2
4.374,64.2
4.375,64.0
4.376,64.2
4.377,64.2
4.378,64.2
4.3790000000000004,64.2
4.38,64.2
4.381,64.2
4.382,64.2
4.383,64.0
4.384,64.6
4.385,64.2
4.386,64.2
4.3870000000000005,64.4
4.388,64.2
4.389,64.4
4.39,64.4
4.391,64.2
4.392,64.2
4.393,64.2
4.394,64.2
4.3950000000000005,64.2
4.396,64.2
4.397,64.4
4.398,64.4
4.399,64.4
4.4,64.4
4.401,64.4
4.402,64.4
4.4030000000000005,64.4
4.404,64.4
4.405,64.6
4.406,64.4
4.407,64.4
4.408,64.4
4.409,64.6
4.41,64.4
4.4110000000000005,64.4
4.412,64.6
4.413,64.6
4.414,64.4
4.415,64.4
4.416,64.6
4.417,64.6
4.418,64.8
4.4190000000000005,64.6
4.42,64.6
4.421,64.6
4.422,64.6
4.423,64.8
4.424,64.6
4.425,64.8
4.426,64.8
4.4270000000000005,64.8
4.428,64.6
4.429,64.8
4.43,65.0
4.431,64.8
4.432,64.6
4.433,65.0
4.434,64.8
4.4350000000000005,64.8
4.436,65.0
4.437,65.0
4.438,65.0
4.439,64.8
4.44,65.0
4.441,64.8
4.442,65.0
4.4430000000000005,64.8
4.444,65.2
4.445,65.0
4.446,65.2
4.447,65.2
4.448,65.2
4.449,65.0
4.45,65.2
4.4510000000000005,65.4
4.452,65.2
4.453,65.2
4.454,65.2
4.455,65.2
4.456,65.2
4.457,65.2
4.458,65.4
4.4590000000000005,65.4
4.46,65.2
4.461,65.4
4.462,65.4
4.463,65.6
4.464,65.4
4.465,65.4
4.466,65.4
4.4670000000000005,65.4
4.468,65.6
4.469,65.6
4.47,65.4
4.471,65.4
4.472,65.8
4.473,65.8
4.474,65.6
4.4750000000000005,65.6
4.476,65.8
4.477,65.6
4.478,65.8
4.479,65.6
4.48,65.6
4.481,65.6
4.482,65.6
4.483,65.8
4.484,66.0
4.485,65.8
4.486,65.8
4.487,66.0
4.488,65.8
4.489,66.2
4.49,66.0
4.491,66.0
4.492,66.0
4.493,65.8
4.494,66.0
4.495,66.0
4.496,66.2
4.497,66.0
4.498,66.2
4.499,66.0
4.5,66.0
4.501,66.0
4.502,66.2
4.503,66.4
4.5040000000000004,66.4
4.505,66.2
4.506,66.4
4.507,66.2
4.508,66.4
4.509,66.4
4.51,66.2
4.511,66.6
4.5120000000000005,66.4
4.513,66.4
4.514,66.4
4.515,66.6
4.516,66.4
4.517,66.4
4.518,66.6
4.519,66.4
4.5200000000000005,66.6
4.521,66.6
4.522,66.6
4.523,66.6
4.524,66.8
4.525,66.8
4.526,66.8
4.527,66.8
4.5280000000000005,66.8
4.529,66.8
4.53,67.0
4.531,67.0
4.532,67.0
4.533,67.0
4.534,66.8
4.535,67.2
4.5360000000000005,67.2
4.537,67.2
4.538,67.2
4.539,67.0
4.54,67.2
4.541,67.2
4.542,67.2
4.543,67.4
4.5440000000000005,67.4
4.545,67.2
4.546,67.4
4.547,67.2
4.548,67.4
4.549,67.4
4.55,67.2
4.551,67.6
4.5520000000000005,67.6
4.553,67.6
4.554,67.6
4.555,67.6
4.556,67.6
4.557,67.4
4.558,67.6
4.559,67.6
4.5600000000000005,67.6
4.561,67.8
4.562,67.8
4.563,68.0
4.564,67.8
4.565,67.8
4.566,67.8
4.567,67.8
4.5680000000000005,67.8
4.569,68.0
4.57,68.0
4.571,68.2
4.572,68.0
4.573,68.0
4.574,68.0
4.575,68.2
4.5760000000000005,68.0
4.577,68.2
4.578,68.2
4.579,68.2
4.58,68.2
4.581,68.2
4.582,68.2
4.583,68.2
4.5840000000000005,68.4
4.585,68.2
4.586,68.2
4.587,68.4
4.588,68.6
4.589,68.4
4.59,68.6
4.591,68.6
4.5920000000000005,68.6
4.593,68.6
4.594,68.6
4.595,68.8
4.596,68.8
4.597,68.8
4.598,68.8
4.599,68.8
4.6000000000000005,69.0
4.601,68.8
4.602,68.8
4.603,69.0
4.604,68.8
4.605,69.0
4.606,69.0
4.607,69.0
4.6080000000000005,69.0
4.609,68.8
4.61,69.2
4.611,69.2
4.612,69.2
4.613,69.0
4.614,69.2
4.615,69.2
4.616,69.4
4.617,69.2
4.618,69.6
4.619,69.4
4.62,69.2
4.621,69.2
4.622,69.6
4.623,69.4
4.624,69.6
4.625,69.6
4.626,69.4
4.627,69.6
4.628,69.8
4.6290000000000004,69.8
4.63,69.6
4.631,70.0
4.632,69.6
4.633,69.6
4.634,70.0
4.635,69.8
4.636,69.8
4.6370000000000005,70.0
4.638,70.0
4.639,69.8
4.64,69.8
4.641,69.8
4.642,70.0
4.643,70.0
4.644,70.2
4.6450000000000005,70.2
4.646,70.0
4.647,70.2
4.648,70.4
4.649,70.2
4.65,70.4
4.651,70.4
4.652,70.4
4.6530000000000005,70.4
4.654,70.2
4.655,70.4
4.656,70.2
4.657,70.4
4.658,70.2
4.659,70.6
4.66,70.6
4.6610000000000005,70.6
4.662,70.6
4.663,70.6
4.664,70.6
4.665,70.6
4.666,70.8
4.667,70.6
4.668,70.4
4.6690000000000005,70.6
4.67,70.8
4.671,70.8
4.672,70.8
4.673,71.0
4.674,71.0
4.675,70.8
4.676,71.0
4.6770000000000005,70.8
4.678,71.0
4.679,71.0
4.68,71.0
4.681,71.0
4.682,71.2
4.683,71.0
4.684,71.0
4.6850000000000005,71.0
4.686,71.0
4.687,71.2
4.688,71.2
4.689,71.2
4.69,71.2
4.691,71.0
4.692,71.0
4.6930000000000005,71.2
4.694,71.2
4.695,71.2
4.696,71.4
4.697,71.2
4.698,71.2
4.699,71.4
4.7,71.6
4.7010000000000005,71.4
4.702,71.4
4.703,71.4
4.704,71.4
4.705,71.4
4.706,71.6
4.707,71.6
4.708,71.4
4.7090000000000005,71.6
4.71,71.4
4.711,71.4
4.712,71.4
4.713,71.6
4.714,71.6
4.715,71.6
4.716,71.6
4.7170000000000005,72.0
4.718,71.8
4.719,71.6
4.72,72.0
4.721,71.8
4.722,72.0
4.723,72.0
4.724,72.0
4.7250000000000005,71.8
4.726,71.8
4.727,72.0
4.728,71.8
4.729,71.8
4.73,72.0
4.731,71.8
4.732,72.0
4.7330000000000005,72.0
4.734,72.0
4.735,72.0
4.736,72.2
4.737,72.2
4.738,72.0
4.739,71.8
4.74,72.0
4.741,72.2
4.742,72.2
4.743,72.2
4.744,72.4
4.745,72.2
4.746,72.2
4.747,72.2
4.748,72.2
4.749,72.4
4.75,72.2
4.751,72.2
4.752,72.4
4.753,72.2
4.7540000000000004,72.2
4.755,72.2
4.756,72.4
4.757,72.2
4.758,72.6
4.759,72.4
4.76,72.4
4.761,72.4
4.7620000000000005,72.4
4.763,72.6
4.764,72.4
4.765,72.4
4.766,72.6
4.767,72.4
4.768,72.4
4.769,72.6
4.7700000000000005,72.6
4.771,72.4
4.772,72.6
4.773,72.6
4.774,72.6
4.775,72.6
4.776,72.4
4.777,72.6
4.7780000000000005,72.4
4.779,72.6
4.78,72.6
4.781,72.6
4.782,72.8
4.783,72.6
4.784,72.6
4.785,72.6
4.7860000000000005,72.8
4.787,72.8
4.788,72.6
4.789,72.8
4.79,72.8
4.791,72.6
4.792,72.8
4.793,72.6
4.7940000000000005,72.8
4.795,73.0
4.796,72.6
4.797,72.8
4.798,72.8
4.799,73.0
4.8,73.0
4.801,72.6
4.8020000000000005,72.8
4.803,72.8
4.804,72.8
4.805,73.0
4.806,72.8
4.807,72.6
4.808,73.0
4.809,73.0
4.8100000000000005,72.8
4.811,72.8
4.812,73.0
4.813,73.2
4.814,72.8
4.815,73.0
4.816,73.0
4.817,73.0
4.8180000000000005,73.0
4.819,73.2
4.82,73.0
4.821,72.8
4.822,73.0
4.823,73.0
4.824,72.8
4.825,73.0
4.8260000000000005,73.0
4.827,73.0
4.828,72.8
4.829,73.0
4.83,72.8
4.831,72.8
4.832,73.0
4.833,73.0
4.8340000000000005,73.0
4.835,73.0
4.836,73.0
4.837,73.0
4.838,73.0
4.839,73.0
4.84,73.2
4.841,73.0
4.8420000000000005,73.0
4.843,73.2
4.844,73.0
4.845,73.0
4.846,72.8
4.847,73.0
4.848,73.0
4.849,73.0
4.8500000000000005,72.8
4.851,73.2
4.852,72.8
4.853,73.0
4.854,73.0
4.855,73.0
4.856,72.8
4.857,73.0
4.8580000000000005,73.0
4.859,73.0
4.86,72.8
4.861,73.0
4.862,73.0
4.863,73.2
4.864,72.8
4.865,72.8
4.866,72.6
4.867,72.8
4.868,73.0
4.869,72.8
4.87,72.8
4.871,73.0
4.872,73.0
4.873,72.8
4.874,73.0
4.875,72.8
4.876,72.8
4.877,72.6
4.878,72.8
4.8790000000000004,72.8
4.88,72.8
4.881,73.0
4.882,72.6
4.883,72.8
4.884,72.8
4.885,72.8
4.886,72.8
4.8870000000000005,72.6
4.888,72.8
4.889,72.8
4.89,72.6
4.891,72.6
4.892,72.8
4.893,72.8
4.894,72.6
4.8950000000000005,72.4
4.896,72.4
4.897,72.6
4.898,72.8
4.899,72.8
4.9,72.6
4.901,72.6
4.902,72.6
4.9030000000000005,72.6
4.904,72.4
4.905,72.6
4.906,72.4
4.907,72.4
4.908,72.6
4.909,72.4
4.91,72.2
4.9110000000000005,72.4
4.912,72.4
4.913,72.4
4.914,72.4
4.915,72.4
4.916,72.4
4.917,72.2
4.918,72.4
4.9190000000000005,72.2
4.92,72.4
4.921,72.4
4.922,72.4
4.923,72.2
4.924,72.4
4.925,72.2
4.926,72.4
4.9270000000000005,72.2
4.928,72.2
4.929,72.0
4.93,72.2
4.931,72.2
4.932,72.0
4.933,72.2
4.934,72.4
4.9350000000000005,72.4
4.936,72.0
4.937,72.2
4.938,72.0
4.939,72.2
4.94,72.0
4.941,72.2
4.942,72.0
4.9430000000000005,72.0
4.944,72.0
4.945,72.2
4.946,72.0
4.947,72.2
4.948,72.2
4.949,72.0
4.95,72.0
4.9510000000000005,71.8
4.952,72.0
4.953,72.0
4.954,72.0
4.955,71.8
4.956,72.0
4.957,72.0
4.958,72.0
4.9590000000000005,71.8
4.96,72.0
4.961,71.8
4.962,72.0
4.963,71.8
4.964,71.8
4.965,71.6
4.966,71.4
4.9670000000000005,71.6
4.968,72.0
4.969,71.4
4.97,71.4
4.971,71.6
4.972,71.6
4.973,71.4
4.974,71.4
4.9750000000000005,71.4
4.976,71.2
4.977,71.4
4.978,71.4
4.979,71.4
4.98,71.6
4.981,71.2
4.982,71.4
4.9830000000000005,71.4
4.984,71.2
4.985,71.4
4.986,71.2
4.987,71.4
4.988,71.2
4.989,71.2
4.99,71.0
4.9910000000000005,71.2
4.992,71.2
4.993,71.2
4.994,71.0
4.995,71.0
4.996,71.0
4.997,71.2
4.998,71.2
4.999,71.0
5.0,71.0
5.001,70.8
5.002,70.8
5.003,70.8
5.0040000000000004,70.6
5.005,70.8
5.006,70.8
5.007,70.8
5.008,70.8
5.009,70.8
5.01,70.8
5.011,70.6
5.0120000000000005,70.6
5.013,70.6
5.014,70.6
5.015,70.4
5.016,70.4
5.017,70.6
5.018,70.4
5.019,70.6
5.0200000000000005,70.4
5.021,70.4
5.022,70.4
5.023,70.2
5.024,70.4
5.025,70.2
5.026,70.2
5.027,70.4
5.0280000000000005,70.2
5.029,70.2
5.03,70.4
5.031,70.4
5.032,70.0
5.033,70.4
5.034,70.0
5.035,70.2
5.0360000000000005,70.0
5.037,70.2
5.038,70.0
5.039,70.0
5.04,70.0
5.041,70.0
5.042,70.0
5.043,70.0
5.0440000000000005,70.0
5.045,69.8
5.046,69.8
5.047,69.8
5.048,69.6
5.049,69.8
5.05,69.6
5.051,69.8
5.0520000000000005,69.6
5.053,69.6
5.054,69.6
5.055,69.4
5.056,69.4
5.057,69.4
5.058,69.6
5.059,69.6
5.0600000000000005,69.4
5.061,69.4
5.062,69.4
5.063,69.2
5.064,69.0
5.065,69.4
5.066,69.2
5.067,69.2
5.0680000000000005,69.0
5.069,69.0
5.07,69.2
5.071,69.0
5.072,69.0
5.073,69.0
5.074,69.0
5.075,69.0
5.0760000000000005,68.8
5.077,68.8
5.078,68.8
5.079,68.8
5.08,68.8
5.081,68.8
5.082,68.8
5.083,68.8
5.0840000000000005,68.8
5.085,68.8
5.086,68.6
5.087,68.8
5.088,68.6
5.089,68.6
5.09,68.8
5.091,68.4
5.0920000000000005,68.6
5.093,68.6
5.094,68.4
5.095,68.4
5.096,68.2
5.097,68.4
5.098,68.2
5.099,68.2
5.1000000000000005,68.2
5.101,68.2
5.102,68.2
5.103,68.2
5.104,68.0
5.105,68.0
5.106,68.0
5.107,68.0
5.1080000000000005,68.0
5.109,68.0
5.11,68.0
5.111,68.0
5.112,68.0
5.113,68.0
5.114,68.0
5.115,67.8
5.1160000000000005,67.8
5.117,67.8
5.118,67.8
5.119,67.8
5.12,67.6
5.121,67.4
5.122,67.6
5.123,67.8
5.124,67.4
5.125,67.6
5.126,67.6
5.127,67.6
5.128,67.4
5.1290000000000004,67.6
5.13,67.4
5.131,67.2
5.132,67.6
5.133,67.2
5.134,67.2
5.135,67.2
5.136,67.2
5.1370000000000005,67.2
5.138,67.2
5.139,67.2
5.14,67.0
5.141,67.0
5.142,67.0
5.143,67.2
5.144,67.0
5.1450000000000005,66.8
5.146,67.0
5.147,66.8
5.148,66.8
5.149,66.8
5.15,66.8
5.151,66.8
5.152,66.6
5.1530000000000005,66.8
5.154,66.8
5.155,66.6
5.156,66.8
5.157,66.8
5.158,66.8
5.159,66.8
5.16,66.6
5.1610000000000005,66.4
5.162,66.4
5.163,66.2
5.164,66.4
5.165,66.6
5.166,66.4
5.167,66.2
5.168,66.4
5.1690000000000005,66.4
5.17,66.4
5.171,66.4
5.172,66.2
5.173,66.2
5.174,66.2
5.175,66.0
5.176,66.2
5.1770000000000005,66.2
5.178,66.4
5.179,66.0
5.18,66.0
5.181,66.2
5.182,66.0
5.183,66.2
5.184,65.8
5.1850000000000005,66.0
5.186,65.8
5.187,66.0
5.188,65.8
5.189,66.0
5.19,66.0
5.191,66.0
5.192,65.6
5.1930000000000005,65.6
5.194,65.8
5.195,65.8
5.196,65.8
5.197,65.8
5.198,65.6
5.199,65.6
5.2,65.6
5.2010000000000005,65.6
5.202,65.4
5.203,65.2
5.204,65.4
5.205,65.4
5.206,65.2
5.207,65.2
5.208,65.4
5.2090000000000005,65.4
5.21,65.4
5.211,65.2
5.212,65.2
5.213,65.4
5.214,65.4
5.215,65.4
5.216,65.2
5.2170000000000005,65.4
5.218,65.2
5.219,65.2
5.22,65.0
5.221,65.2
5.222,65.2
5.223,65.0
5.224,64.8
5.2250000000000005,65.0
5.226,65.0
5.227,65.0
5.228,65.0
5.229,65.0
5.23,64.8
5.231,65.0
5.232,65.0
5.2330000000000005,64.6
5.234,65.0
5.235,64.8
5.236,64.8
5.237,64.6
5.238,64.8
5.239,64.8
5.24,64.8
5.2410000000000005,64.8
5.242,65.0
5.243,64.8
5.244,64.8
5.245,64.8
5.246,64.6
5.247,64.8
5.248,64.4
5.249,64.8
5.25,64.6
5.251,64.8
5.252,64.6
5.253,64.6
5.2540000000000004,64.8
5.255,64.6
5.256,64.4
5.257,64.6
5.258,64.6
5.259,64.6
5.26,64.4
5.261,64.6
5.2620000000000005,64.2
5.263,64.4
5.264,64.4
5.265,64.4
5.266,64.2
5.267,64.2
5.268,64.4
5.269,64.4
5.2700000000000005,64.4
5.271,64.2
5.272,64.2
5.273,64.2
5.274,64.2
5.275,64.4
5.276,64.2
5.277,64.4
5.2780000000000005,64.2
5.279,64.2
5.28,64.4
5.281,64.4
5.282,64.2
5.283,64.2
5.284,64.2
5.285,64.2
5.2860000000000005,64.2
5.287,64.2
5.288,64.2
5.289,64.2
5.29,64.4
5.291,64.2
5.292,64.0
5.293,64.0
5.2940000000000005,64.2
5.295,64.2
5.296,64.2
5.297,64.2
5.298,64.2
5.299,64.2
5.3,64.2
5.301,64.0
5.3020000000000005,64.0
5.303,64.2
5.304,64.0
5.305,64.0
5.306,64.0
5.307,63.8
5.308,64.0
5.309,64.2
5.3100000000000005,64.2
5.311,64.0
5.312,64.0
5.313,64.0
5.314,64.0
5.315,63.8
5.316,64.2
5.317,64.2
5.3180000000000005,64.0
5.319,64.0
5.32,64.0
5.321,63.8
5.322,64.0
5.323,63.6
5.324,64.0
5.325,64.0
5.3260000000000005,63.8
5.327,63.8
5.328,63.8
5.329,64.0
5.33,63.8
5.331,64.0
5.332,63.6
5.333,63.8
5.3340000000000005,63.8
5.335,63.8
5.336,64.0
5.337,63.8
5.338,64.0
5.339,63.6
5.34,63.8
5.341,64.0
5.3420000000000005,63.8
5.343,64.0
5.344,64.0
5.345,64.0
5.346,64.0
5.347,63.8
5.348,63.8
5.349,64.0
5.3500000000000005,64.0
5.351,63.8
5.352,64.0
5.353,63.8
5.354,63.8
5.355,63.6
5.356,63.8
5.357,63.8
5.3580000000000005,63.8
5.359,63.8
5.36,63.8
5.361,63.6
5.362,63.8
5.363,64.0
5.364,64.0
5.365,63.8
5.3660000000000005,63.8
5.367,64.0
5.368,64.0
5.369,63.8
5.37,63.8
5.371,63.8
5.372,63.6
5.373,63.6
5.3740000000000006,63.8
5.375,63.8
5.376,63.8
5.377,63.8
5.378,64.0
5.3790000000000004,63.8
5.38,63.8
5.381,63.8
5.382,63.8
5.383,64.0
5.384,63.8
5.385,64.0
5.386,63.8
5.3870000000000005,63.8
5.388,64.0
5.389,63.8
5.39,63.8
5.391,63.8
5.392,63.8
5.393,63.8
5.394,63.8
5.3950000000000005,63.8
5.396,63.8
5.397,63.8
5.398,64.0
5.399,64.2
5.4,63.8
5.401,63.8
5.402,64.0
5.4030000000000005,63.8
5.404,64.0
5.405,63.8
5.406,64.2
5.407,63.8
5.408,64.0
5.409,64.0
5.41,64.2
5.4110000000000005,64.0
5.412,64.0
5.413,64.2
5.414,64.0
5.415,64.0
5.416,64.2
5.417,64.2
5.418,63.8
5.4190000000000005,64.0
5.42,64.0
5.421,64.2
5.422,63.8
5.423,64.2
5.424,64.0
5.425,64.0
5.426,64.2
5.4270000000000005,64.2
5.428,64.0
5.429,64.2
5.43,64.2
5.431,64.0
5.432,64.2
5.433,64.0
5.434,64.2
5.4350000000000005,64.0
5.436,64.2
5.437,64.4
5.438,64.2
5.439,64.2
5.44,64.2
5.441,64.2
5.442,64.2
5.4430000000000005,64.4
5.444,64.2
5.445,64.2
5.446,64.0
5.447,64.4
5.448,64.2
5.449,64.6
5.45,64.4
5.4510000000000005,64.6
5.452,64.4
5.453,64.4
5.454,64.2
5.455,64.4
5.456,64.4
5.457,64.4
5.458,64.4
5.4590000000000005,64.4
5.46,64.2
5.461,64.2
5.462,64.6
5.463,64.6
5.464,64.4
5.465,64.4
5.466,64.6
5.4670000000000005,64.6
5.468,64.6
5.469,64.4
5.47,64.6
5.471,64.4
5.472,64.4
5.473,64.6
5.474,64.6
5.4750000000000005,64.6
5.476,64.6
5.477,64.8
5.478,64.6
5.479,64.8
5.48,64.8
5.481,64.6
5.482,64.6
5.4830000000000005,64.6
5.484,64.6
5.485,64.8
5.486,64.8
5.487,64.8
5.488,64.8
5.489,64.6
5.49,64.8
5.4910000000000005,64.8
5.492,64.8
5.493,64.8
5.494,64.8
5.495,64.8
5.496,64.8
5.497,64.8
5.498,64.8
5.4990000000000006,64.8
5.5,64.8
5.501,65.2
5.502,65.0
5.503,64.8
5.5040000000000004,64.8
5.505,65.0
5.506,65.0
5.507,65.0
5.508,65.2
5.509,65.4
5.51,65.2
5.511,65.0
5.5120000000000005,65.2
5.513,65.0
5.514,65.0
5.515,65.2
5.516,65.2
5.517,65.0
5.518,65.0
5.519,65.4
5.5200000000000005,65.2
5.521,65.2
5.522,65.4
5.523,65.4
5.524,65.4
5.525,65.4
5.526,65.4
5.527,65.2
5.5280000000000005,65.6
5.529,65.6
5.53,65.6
5.531,65.2
5.532,65.6
5.533,65.6
5.534,65.6
5.535,65.8
5.5360000000000005,65.6
5.537,65.4
5.538,65.8
5.539,65.8
5.54,65.6
5.541,65.8
5.542,65.8
5.543,65.8
5.5440000000000005,65.8
5.545,65.8
5.546,65.8
5.547,65.8
5.548,66.0
5.549,65.8
5.55,65.8
5.551,66.2
5.5520000000000005,66.0
5.553,65.8
5.554,66.0
5.555,66.0
5.556,65.8
5.557,66.0
5.558,66.0
5.559,66.0
5.5600000000000005,66.0
5.561,66.2
5.562,66.2
5.563,66.0
5.564,66.0
5.565,66.4
5.566,66.4
5.567,66.2
5.5680000000000005,66.2
5.569,66.4
5.57,66.2
5.571,66.2
5.572,66.4
5.573,66.4
5.574,66.4
5.575,66.2
5.5760000000000005,66.4
5.577,66.4
5.578,66.6
5.579,66.4
5.58,66.4
5.581,66.8
5.582,66.6
5.583,66.6
5.5840000000000005,66.6
5.585,66.8
5.586,66.6
5.587,66.6
5.588,66.6
5.589,66.8
5.59,66.8
5.591,66.8
5.5920000000000005,67.0
5.593,66.8
5.594,67.0
5.595,67.0
5.596,67.0
5.597,66.8
5.598,67.2
5.599,67.2
5.6000000000000005,67.2
5.601,67.2
5.602,67.2
5.603,67.2
5.604,67.2
5.605,67.4
5.606,67.2
5.607,67.2
5.6080000000000005,67.4
5.609,67.4
5.61,67.2
5.611,67.4
5.612,67.4
5.613,67.4
5.614,67.6
5.615,67.6
5.6160000000000005,67.6
5.617,67.4
5.618,67.6
5.619,67.6
5.62,67.8
5.621,67.6
5.622,67.8
5.623,67.8
5.6240000000000006,67.8
5.625,67.8
5.626,67.8
5.627,67.8
5.628,68.0
5.6290000000000004,67.8
5.63,67.8
5.631,67.8
5.632,68.0
5.633,68.0
5.634,68.0
5.635,68.2
5.636,68.0
5.6370000000000005,68.0
5.638,68.2
5.639,68.4
5.64,68.2
5.641,68.2
5.642,68.2
5.643,68.4
5.644,68.0
5.6450000000000005,68.4
5.646,68.4
5.647,68.4
5.648,68.4
5.649,68.4
5.65,68.6
5.651,68.4
5.652,68.6
5.6530000000000005,68.6
5.654,68.6
5.655,68.6
5.656,68.8
5.657,68.8
5.658,68.8
5.659,68.8
5.66,68.8
5.6610000000000005,69.0
5.662,68.8
5.663,69.0
5.664,68.8
5.665,68.8
5.666,68.8
5.667,68.8
5.668,69.0
5.6690000000000005,69.0
5.67,68.8
5.671,69.2
5.672,69.0
5.673,69.0
5.674,69.0
5.675,69.2
5.676,69.2
5.6770000000000005,69.2
5.678,69.2
5.679,69.4
5.68,69.4
5.681,69.2
5.682,69.4
5.683,69.4
5.684,69.4
5.6850000000000005,69.4
5.686,69.6
5.687,69.6
5.688,69.6
5.689,69.6
5.69,69.6
5.691,69.8
5.692,69.8
5.6930000000000005,69.8
5.694,69.8
5.695,69.8
5.696,69.8
5.697,70.0
5.698,69.8
5.699,70.0
5.7,70.0
5.7010000000000005,69.8
5.702,70.0
5.703,70.0
5.704,70.0
5.705,70.0
5.706,70.4
5.707,70.2
5.708,70.2
5.7090000000000005,70.2
5.71,70.2
5.711,70.2
5.712,70.4
5.713,70.4
5.714,70.2
5.715,70.2
5.716,70.4
5.7170000000000005,70.6
5.718,70.4
5.719,70.6
5.72,70.4
5.721,70.4
5.722,70.4
5.723,70.6
5.724,70.6
5.7250000000000005,70.4
5.726,70.6
5.727,70.6
5.728,70.8
5.729,70.6
5.73,70.4
5.731,70.8
5.732,70.6
5.7330000000000005,70.8
5.734,71.0
5.735,70.8
5.736,70.8
5.737,71.0
5.738,70.8
5.739,71.0
5.74,71.0
5.7410000000000005,71.0
5.742,71.0
5.743,71.0
5.744,71.0
5.745,71.0
5.746,71.0
5.747,71.2
5.748,71.0
5.7490000000000006,71.2
5.75,71.2
5.751,71.0
5.752,71.0
5.753,71.2
5.7540000000000004,71.0
5.755,71.2
5.756,71.2
5.757000000000001,71.0
5.758,71.2
5.759,71.4
5.76,71.6
5.761,71.2
5.7620000000000005,71.4
5.763,71.4
5.764,71.6
5.765,71.6
5.766,71.4
5.767,71.4
5.768,71.4
5.769,71.4
5.7700000000000005,71.8
5.771,71.6
5.772,71.6
5.773,71.4
5.774,71.6
5.775,71.6
5.776,71.8
5.777,71.6
5.7780000000000005,71.6
5.779,71.8
5.78,71.8
5.781,71.6
5.782,71.4
5.783,71.8
5.784,72.0
5.785,72.0
5.7860000000000005,71.8
5.787,71.8
5.788,71.8
5.789,72.0
5.79,72.0
5.791,72.0
5.792,71.8
5.793,72.0
5.7940000000000005,72.0
5.795,72.2
5.796,72.0
5.797,72.0
5.798,72.0
5.799,72.0
5.8,72.2
5.801,72.0
5.8020000000000005,72.2
5.803,72.0
5.804,72.2
5.805,72.4
5.806,72.2
5.807,72.0
5.808,72.2
5.809,72.4
5.8100000000000005,72.2
5.811,72.4
5.812,72.2
5.813,72.4
5.814,72.0
5.815,72.2
5.816,72.4
5.817,72.2
5.8180000000000005,72.2
5.819,72.4
5.82,72.0
5.821,72.4
5.822,72.4
5.823,72.6
5.824,72.2
5.825,72.4
5.8260000000000005,72.6
5.827,72.4
5.828,72.2
5.829,72.4
5.83,72.4
5.831,72.4
5.832,72.6
5.833,72.6
5.8340000000000005,72.4
5.835,72.6
5.836,72.6
5.837,72.6
5.838,72.6
5.839,72.6
5.84,72.6
5.841,72.6
5.8420000000000005,72.4
5.843,72.8
5.844,72.4
5.845,72.6
5.846,72.6
5.847,72.8
5.848,72.6
5.849,72.8
5.8500000000000005,72.6
5.851,72.8
5.852,72.8
5.853,72.8
5.854,72.6
5.855,72.8
5.856,72.8
5.857,72.6
5.8580000000000005,72.8
5.859,72.8
5.86,72.6
5.861,72.8
5.862,72.8
5.863,73.0
5.864,72.8
5.865,72.8
5.8660000000000005,72.6
5.867,72.8
5.868,72.8
5.869,73.0
5.87,72.8
5.871,73.0
5.872,72.8
5.873,72.8
5.8740000000000006,72.8
5.875,73.0
5.876,72.8
5.877,72.8
5.878,73.0
5.8790000000000004,72.8
5.88,72.8
5.881,72.8
5.882000000000001,73.0
5.883,73.0
5.884,73.0
5.885,72.8
5.886,73.0
5.8870000000000005,73.0
5.888,73.0
5.889,73.0
5.89,73.0
5.891,73.0
5.892,73.0
5.893,72.8
5.894,73.0
5.8950000000000005,73.0
5.896,73.0
5.897,73.0
5.898,72.8
5.899,73.0
5.9,72.8
5.901,73.2
5.902,73.0
5.9030000000000005,73.0
5.904,73.0
5.905,73.0
5.906,73.0
5.907,72.8
5.908,73.0
5.909,72.8
5.91,73.0
5.9110000000000005,73.0
5.912,73.0
5.913,72.8
5.914,73.0
5.915,73.2
5.916,73.0
5.917,72.8
5.918,73.0
5.9190000000000005,72.8
5.92,72.8
5.921,73.2
5.922,73.0
5.923,73.0
5.924,72.8
5.925,73.0
5.926,72.8
5.9270000000000005,73.0
5.928,73.0
5.929,73.0
5.93,72.8
5.931,73.0
5.932,73.0
5.933,73.0
5.934,73.0
5.9350000000000005,73.2
5.936,73.0
5.937,72.8
5.938,72.8
5.939,73.0
5.94,72.8
5.941,72.8
5.942,73.0
5.9430000000000005,72.8
5.944,73.0
5.945,72.8
5.946,72.8
5.947,72.8
5.948,73.0
5.949,72.8
5.95,72.8
5.9510000000000005,72.8
5.952,72.8
5.953,72.8
5.954,72.8
5.955,72.8
5.956,72.6
5.957,72.8
5.958,72.6
5.9590000000000005,72.6
5.96,72.8
5.961,72.8
5.962,72.6
5.963,73.0
5.964,72.6
5.965,72.6
5.966,72.4
5.9670000000000005,72.8
5.968,72.6
5.969,72.4
5.97,72.6
5.971,72.4
5.972,72.4
5.973,72.6
5.974,72.6
5.9750000000000005,72.4
5.976,72.2
5.977,72.6
5.978,72.2
5.979,72.4
5.98,72.2
5.981,72.4
5.982,72.4
5.9830000000000005,72.4
5.984,72.4
5.985,72.0
5.986,72.4
5.987,72.4
5.988,72.4
5.989,72.4
5.99,72.2
5.9910000000000005,72.2
5.992,72.2
5.993,72.2
5.994,72.0
5.995,72.0
5.996,72.2
5.997,72.2
5.998,72.2
5.9990000000000006,72.0
6.0,72.2
6.001,72.0
6.002,72.2
6.003,72.0
6.0040000000000004,72.2
6.005,72.4
6.006,71.8
6.007000000000001,72.0
6.008,71.8
6.009,72.0
6.01,72.0
6.011,72.0
6.0120000000000005,71.8
6.013,72.0
6.014,72.0
6.015000000000001,71.8
6.016,71.8
6.017,71.8
6.018,71.8
6.019,72.0
6.0200000000000005,72.0
6.021,72.0
6.022,71.8
6.023,72.0
6.024,71.8
6.025,71.8
6.026,71.8
6.027,71.8
6.0280000000000005,71.6
6.029,71.6
6.03,71.6
6.031,72.0
6.032,71.6
6.033,71.6
6.034,71.6
6.035,71.4
6.0360000000000005,71.6
6.037,71.4
6.038,71.4
6.039,71.4
6.04,71.4
6.041,71.4
6.042,71.4
6.043,71.4
6.0440000000000005,71.2
6.045,71.6
6.046,71.6
6.047,71.6
6.048,71.2
6.049,71.2
6.05,71.2
6.051,71.4
6.0520000000000005,71.2
6.053,71.2
6.054,71.2
6.055,71.0
6.056,71.2
6.057,71.2
6.058,71.0
6.059,71.2
6.0600000000000005,71.0
6.061,71.0
6.062,71.0
6.063,70.8
6.064,70.8
6.065,70.8
6.066,70.8
6.067,71.0
6.0680000000000005,70.8
6.069,70.8
6.07,70.8
6.071,70.8
6.072,70.8
6.073,70.6
6.074,70.6
6.075,70.6
6.0760000000000005,70.6
6.077,70.6
6.078,70.6
6.079,70.6
6.08,70.6
6.081,70.6
6.082,70.6
6.083,70.4
6.0840000000000005,70.4
6.085,70.4
6.086,70.4
6.087,70.4
6.088,70.4
6.089,70.2
6.09,70.2
6.091,70.0
6.0920000000000005,70.2
6.093,70.2
6.094,70.0
6.095,70.0
6.096,70.0
6.097,70.2
6.098,70.0
6.099,70.2
6.1000000000000005,70.0
6.101,70.0
6.102,70.0
6.103,70.0
6.104,70.0
6.105,69.8
6.106,70.0
6.107,69.8
6.1080000000000005,70.0
6.109,69.8
6.11,70.0
6.111,69.6
6.112,69.6
6.113,69.8
6.114,69.4
6.115,69.6
6.1160000000000005,69.8
6.117,69.4
6.118,69.4
6.119,69.6
6.12,69.6
6.121,69.4
6.122,69.4
6.123,69.4
6.1240000000000006,69.4
6.125,69.4
6.126,69.2
6.127,69.2
6.128,69.2
6.1290000000000004,69.2
6.13,69.2
6.131,69.0
6.132000000000001,69.2
6.133,69.0
6.134,69.0
6.135,69.0
6.136,68.8
6.1370000000000005,69.0
6.138,69.0
6.139,68.8
6.140000000000001,68.8
6.141,68.8
6.142,68.8
6.143,69.0
6.144,68.8
6.1450000000000005,68.8
6.146,68.8
6.147,68.6
6.148,68.8
6.149,68.6
6.15,68.4
6.151,68.6
6.152,68.4
6.1530000000000005,68.4
6.154,68.4
6.155,68.6
6.156,68.4
6.157,68.4
6.158,68.4
6.159,68.2
6.16,68.2
6.1610000000000005,68.4
6.162,68.2
6.163,68.2
6.164,68.4
6.165,68.0
6.166,68.0
6.167,68.0
6.168,68.2
6.1690000000000005,68.2
6.17,68.0
6.171,68.2
6.172,68.2
6.173,67.8
6.174,68.0
6.175,68.0
6.176,67.8
6.1770000000000005,67.6
6.178,67.8
6.179,67.8
6.18,67.8
6.181,67.6
6.182,67.6
6.183,67.6
6.184,67.6
6.1850000000000005,67.6
6.186,67.6
6.187,67.6
6.188,67.6
6.189,67.6
6.19,67.6
6.191,67.6
6.192,67.6
6.1930000000000005,67.4
6.194,67.4
6.195,67.4
6.196,67.2
6.197,67.2
6.198,67.2
6.199,67.2
6.2,67.2
6.2010000000000005,67.2
6.202,67.4
6.203,67.0
6.204,66.8
6.205,67.0
6.206,67.0
6.207,67.0
6.208,67.0
6.2090000000000005,67.0
6.21,66.8
6.211,67.0
6.212,66.8
6.213,66.8
6.214,66.6
6.215,66.8
6.216,66.6
6.2170000000000005,66.8
6.218,66.6
6.219,66.8
6.22,66.6
6.221,66.6
6.222,66.8
6.223,66.6
6.224,66.6
6.2250000000000005,66.6
6.226,66.6
6.227,66.4
6.228,66.4
6.229,66.4
6.23,66.4
6.231,66.4
6.232,66.4
6.2330000000000005,66.2
6.234,66.4
6.235,66.2
6.236,66.2
6.237,66.2
6.238,66.0
6.239,66.2
6.24,66.0
6.2410000000000005,66.2
6.242,66.0
6.243,66.2
6.244,66.2
6.245,66.0
6.246,65.8
6.247,66.0
6.248,66.0
6.2490000000000006,65.8
6.25,66.0
6.251,66.0
6.252,65.8
6.253,65.6
6.2540000000000004,65.8
6.255,65.8
6.256,65.6
6.257000000000001,65.6
6.258,65.8
6.259,65.8
6.26,65.8
6.261,65.6
6.2620000000000005,65.6
6.263,65.6
6.264,65.4
6.265000000000001,65.6
6.266,65.6
6.267,65.4
6.268,65.2
6.269,65.4
6.2700000000000005,65.4
6.271,65.4
6.272,65.2
6.273,65.2
6.274,65.4
6.275,65.2
6.276,65.2
6.277,65.0
6.2780000000000005,65.2
6.279,65.0
6.28,65.2
6.281,65.0
6.282,65.0
6.283,65.0
6.284,65.2
6.285,65.0
6.2860000000000005,65.2
6.287,64.8
6.288,64.8
6.289,65.0
6.29,64.8
6.291,64.8
6.292,64.8
6.293,65.0
6.2940000000000005,64.8
6.295,64.8
6.296,64.8
6.297,65.0
6.298,64.8
6.299,65.0
6.3,64.8
6.301,64.8
6.3020000000000005,64.8
6.303,64.8
6.304,64.8
6.305,64.6
6.306,64.8
6.307,64.8
6.308,64.6
6.309,64.4
6.3100000000000005,64.4
6.311,64.8
6.312,64.6
6.313,64.6
6.314,64.8
6.315,64.4
6.316,64.4
6.317,64.6
6.3180000000000005,64.6
6.319,64.6
6.32,64.6
6.321,64.6
6.322,64.4
6.323,64.4
6.324,64.4
6.325,64.6
6.3260000000000005,64.2
6.327,64.4
6.328,64.4
6.329,64.4
6.33,64.4
6.331,64.2
6.332,64.2
6.333,64.4
6.3340000000000005,64.2
6.335,64.4
6.336,64.4
6.337,64.0
6.338,64.4
6.339,64.4
6.34,64.2
6.341,64.2
6.3420000000000005,64.4
6.343,64.2
6.344,64.2
6.345,64.2
6.346,64.2
6.347,64.2
6.348,64.2
6.349,64.2
6.3500000000000005,64.0
6.351,64.2
6.352,64.2
6.353,64.2
6.354,64.4
6.355,64.0
6.356,64.0
6.357,64.2
6.3580000000000005,64.2
6.359,64.2
6.36,64.0
6.361,64.0
6.362,64.0
6.363,64.0
6.364,64.2
6.365,64.2
6.3660000000000005,64.0
6.367,64.0
6.368,64.2
6.369,64.0
6.37,64.2
6.371,64.2
6.372,64.0
6.373,64.0
6.3740000000000006,63.8
6.375,64.0
6.376,64.0
6.377,64.0
6.378,64.2
6.3790000000000004,64.0
6.38,63.8
6.381,63.8
6.382000000000001,63.8
6.383,64.0
6.384,64.0
6.385,63.8
6.386,63.8
6.3870000000000005,63.8
6.388,63.8
6.389,64.0
6.390000000000001,63.8
6.391,63.8
6.392,64.0
6.393,63.8
6.394,63.8
6.3950000000000005,63.8
6.396,63.8
6.397,64.0
6.398000000000001,63.8
6.399,63.8
6.4,64.0
6.401,64.0
6.402,63.8
6.4030000000000005,63.8
6.404,63.8
6.405,63.8
6.406,63.8
6.407,63.8
6.408,63.6
6.409,63.8
6.41,63.8
6.4110000000000005,63.8
6.412,63.6
6.413,63.8
6.414,63.6
6.415,64.0
6.416,63.8
6.417,63.8
6.418,63.8
6.4190000000000005,63.8
6.42,64.0
6.421,63.6
6.422,63.6
6.423,63.8
6.424,63.8
6.425,63.6
6.426,64.0
6.4270000000000005,63.8
6.428,63.8
6.429,63.8
6.43,63.8
6.431,63.8
6.432,63.8
6.433,64.0
6.434,63.8
6.4350000000000005,64.0
6.436,63.8
6.437,64.0
6.438,63.8
6.439,64.0
6.44,63.8
6.441,63.8
6.442,64.0
6.4430000000000005,63.8
6.444,63.6
6.445,63.8
6.446,63.8
6.447,64.0
6.448,63.8
6.449,63.8
6.45,63.8
6.4510000000000005,63.6
6.452,63.8
6.453,64.0
6.454,64.0
6.455,63.8
6.456,64.2
6.457,63.8
6.458,63.8
6.4590000000000005,63.8
6.46,63.8
6.461,63.8
6.462,63.8
6.463,63.8
6.464,64.2
6.465,64.0
6.466,63.8
6.4670000000000005,64.0
6.468,64.0
6.469,64.2
6.47,64.0
6.471,64.0
6.472,64.2
6.473,63.8
6.474,64.0
6.4750000000000005,63.8
6.476,64.2
6.477,64.2
6.478,64.2
6.479,63.8
6.48,64.0
6.481,64.0
6.482,64.2
6.4830000000000005,64.0
6.484,64.0
6.485,63.8
6.486,64.0
6.487,64.0
6.488,64.0
6.489,64.0
6.49,64.0
6.4910000000000005,64.2
6.492,64.2
6.493,64.0
6.494,63.8
6.495,64.2
6.496,64.2
6.497,64.2
6.498,64.2
6.4990000000000006,64.2
6.5,64.2
6.501,64.0
6.502,64.2
6.503,64.0
6.5040000000000004,64.4
6.505,64.4
6.506,64.2
6.507000000000001,64.2
6.508,64.2
6.509,64.4
6.51,64.2
6.511,64.2
6.5120000000000005,64.4
6.513,64.2
6.514,64.2
6.515000000000001,64.4
6.516,64.4
6.517,64.4
6.518,64.6
6.519,64.6
6.5200000000000005,64.4
6.521,64.4
6.522,64.4
6.523000000000001,64.6
6.524,64.4
6.525,64.6
6.526,64.8
6.527,64.6
6.5280000000000005,64.4
6.529,64.6
6.53,64.6
6.531,64.6
6.532,64.6
6.533,64.6
6.534,64.6
6.535,64.4
6.5360000000000005,64.6
6.537,64.6
6.538,64.8
6.539,64.6
6.54,64.8
6.541,64.8
6.542,64.8
6.543,64.6
6.5440000000000005,64.8
6.545,64.8
6.546,64.6
6.547,64.8
6.548,64.8
6.549,64.6
6.55,64.4
6.551,64.8
6.5520000000000005,64.8
6.553,64.6
6.554,64.8
6.555,65.0
6.556,64.8
6.557,64.8
6.558,64.6
6.559,64.8
6.5600000000000005,64.8
6.561,64.8
6.562,65.0
6.563,65.2
6.564,65.0
6.565,64.8
6.566,65.0
6.567,65.0
6.5680000000000005,65.0
6.569,65.0
6.57,65.0
6.571,65.0
6.572,65.0
6.573,65.2
6.574,65.0
6.575,65.0
6.5760000000000005,65.2
6.577,65.2
6.578,65.0
6.579,65.0
6.58,65.2
6.581,65.2
6.582,65.4
6.583,65.4
6.5840000000000005,65.2
6.585,65.2
6.586,65.2
6.587,65.4
6.588,65.4
6.589,65.4
6.59,65.4
6.591,65.2
6.5920000000000005,65.4
6.593,65.4
6.594,65.6
6.595,65.4
6.596,65.8
6.597,65.6
6.598,65.6
6.599,65.4
6.6000000000000005,65.6
6.601,65.6
6.602,65.4
6.603,65.8
6.604,65.8
6.605,65.8
6.606,65.6
6.607,65.8
6.6080000000000005,65.8
6.609,65.6
6.61,65.6
6.611,65.8
6.612,65.8
6.613,66.0
6.614,66.0
6.615,65.8
6.6160000000000005,65.8
6.617,66.0
6.618,66.0
6.619,65.8
6.62,65.8
6.621,66.0
6.622,66.2
6.623,65.8
6.6240000000000006,66.2
6.625,66.2
6.626,66.0
6.627,66.4
6.628,66.4
6.6290000000000004,66.2
6.63,66.2
6.631,66.4
6.632000000000001,66.4
6.633,66.4
6.634,66.2
6.635,66.4
6.636,66.6
6.6370000000000005,66.4
6.638,66.4
6.639,66.4
6.640000000000001,66.6
6.641,66.6
6.642,66.2
6.643,66.6
6.644,66.6
6.6450000000000005,66.6
6.646,66.6
6.647,66.6
6.648000000000001,66.6
6.649,66.8
6.65,66.6
6.651,66.8
6.652,66.8
6.6530000000000005,66.8
6.654,67.0
6.655,66.8
6.656000000000001,67.0
6.657,67.0
6.658,67.2
6.659,66.8
6.66,67.0
6.6610000000000005,67.0
6.662,67.0
6.663,67.2
6.664,67.2
6.665,67.2
6.666,67.0
6.667,67.2
6.668,67.4
6.6690000000000005,67.2
6.67,67.4
6.671,67.4
6.672,67.2
6.673,67.4
6.674,67.4
6.675,67.4
6.676,67.2
6.6770000000000005,67.4
6.678,67.4
6.679,67.6
6.68,67.6
6.681,67.6
6.682,67.6
6.683,67.6
6.684,67.6
6.6850000000000005,68.0
6.686,67.8
6.687,67.6
6.688,67.8
6.689,67.8
6.69,67.8
6.691,67.6
6.692,67.8
6.6930000000000005,68.0
6.694,67.8
6.695,68.0
6.696,68.0
6.697,68.0
6.698,68.2
6.699,68.0
6.7,68.2
6.7010000000000005,68.0
6.702,68.4
6.703,68.2
6.704,68.2
6.705,68.2
6.706,68.4
6.707,68.4
6.708,68.4
6.7090000000000005,68.2
6.71,68.4
6.711,68.2
6.712,68.6
6.713,68.4
6.714,68.6
6.715,68.4
6.716,68.6
6.7170000000000005,68.6
6.718,68.6
6.719,68.4
6.72,68.8
6.721,68.8
6.722,68.8
6.723,68.6
6.724,69.0
6.7250000000000005,68.8
6.726,68.8
6.727,68.8
6.728,68.8
6.729,68.8
6.73,69.0
6.731,69.0
6.732,69.0
6.7330000000000005,69.0
6.734,69.0
6.735,69.0
6.736,69.0
6.737,69.2
6.738,69.2
6.739,69.2
6.74,69.2
6.7410000000000005,69.2
6.742,69.4
6.743,69.4
6.744,69.4
6.745,69.4
6.746,69.6
6.747,69.4
6.748,69.4
6.7490000000000006,69.6
6.75,69.6
6.751,69.6
6.752,69.8
6.753,69.6
6.7540000000000004,69.6
6.755,69.8
6.756,69.6
6.757000000000001,69.8
6.758,69.6
6.759,69.8
6.76,69.8
6.761,70.0
6.7620000000000005,70.0
6.763,70.0
6.764,70.0
6.765000000000001,70.0
6.766,70.2
6.767,70.2
6.768,70.0
6.769,70.0
6.7700000000000005,70.0
6.771,70.0
6.772,70.0
6.773000000000001,70.0
6.774,70.4
6.775,70.4
6.776,70.2
6.777,70.2
6.7780000000000005,70.2
6.779,70.4
6.78,70.4
6.781000000000001,70.4
6.782,70.4
6.783,70.4
6.784,70.4
6.785,70.4
6.7860000000000005,70.4
6.787,70.4
6.788,70.6
6.789,70.4
6.79,70.6
6.791,70.6
6.792,70.8
6.793,70.8
6.7940000000000005,70.6
6.795,70.8
6.796,70.8
6.797,71.0
6.798,70.8
6.799,70.8
6.8,70.8
6.801,71.0
6.8020000000000005,71.0
6.803,71.0
6.804,70.8
6.805,70.8
6.806,71.0
6.807,71.0
6.808,71.0
6.809,71.0
6.8100000000000005,70.8
6.811,71.0
6.812,71.0
6.813,71.0
6.814,71.0
6.815,71.2
6.816,71.2
6.817,71.0
6.8180000000000005,71.2
6.819,71.2
6.82,71.2
6.821,71.2
6.822,71.4
6.823,71.4
6.824,71.2
6.825,71.4
6.8260000000000005,71.4
6.827,71.2
6.828,71.6
6.829,71.6
6.83,71.4
6.831,71.6
6.832,71.4
6.833,71.6
6.8340000000000005,71.6
6.835,72.0
6.836,71.6
6.837,71.6
6.838,71.8
6.839,71.8
6.84,71.6
6.841,71.8
6.8420000000000005,71.8
6.843,71.6
6.844,72.0
6.845,71.8
6.846,71.8
6.847,71.8
6.848,72.0
6.849,72.0
6.8500000000000005,71.8
6.851,71.8
6.852,72.0
6.853,72.0
6.854,72.0
6.855,71.8
6.856,72.0
6.857,71.8
6.8580000000000005,72.0
6.859,72.2
6.86,72.0
6.861,72.0
6.862,72.0
6.863,72.0
6.864,72.2
6.865,72.2
6.8660000000000005,72.2
6.867,72.0
6.868,72.0
6.869,72.2
6.87,72.2
6.871,72.0
6.872,72.2
6.873,72.2
6.8740000000000006,72.4
6.875,72.2
6.876,72.2
6.877,72.2
6.878,72.4
6.8790000000000004,72.2
6.88,72.2
6.881,72.2
6.882000000000001,72.2
6.883,72.2
6.884,72.4
6.885,72.4
6.886,72.4
6.8870000000000005,72.4
6.888,72.4
6.889,72.4
6.890000000000001,72.2
6.891,72.6
6.892,72.4
6.893,72.6
6.894,72.6
6.8950000000000005,72.4
6.896,72.6
6.897,72.6
6.898000000000001,72.4
6.899,72.6
6.9,72.6
6.901,72.6
6.902,72.4
6.9030000000000005,72.4
6.904,72.4
6.905,72.8
6.906000000000001,72.6
6.907,72.4
6.908,72.8
6.909,72.6
6.91,72.8
6.9110000000000005,72.8
6.912,72.8
6.913,72.6
6.914,72.8
6.915,72.8
6.916,72.8
6.917,72.6
6.918,72.8
6.9190000000000005,72.8
6.92,72.8
6.921,72.8
6.922,72.8
6.923,72.8
6.924,72.8
6.925,72.8
6.926,72.8
6.9270000000000005,73.0
6.928,73.0
6.929,72.8
6.93,72.8
6.931,72.8
6.932,72.8
6.933,72.8
6.934,73.0
6.9350000000000005,72.8
6.936,73.0
6.937,72.8
6.938,73.0
6.939,73.0
6.94,73.0
6.941,73.0
6.942,73.0
6.9430000000000005,73.0
6.944,72.8
6.945,72.8
6.946,72.6
6.947,73.2
6.948,73.0
6.949,72.8
6.95,73.0
6.9510000000000005,73.0
6.952,73.2
6.953,73.0
6.954,72.8
6.955,73.0
6.956,72.8
6.957,73.0
6.958,73.0
6.9590000000000005,73.0
6.96,73.0
6.961,73.0
6.962,72.8
6.963,73.0
6.964,73.0
6.965,73.0
6.966,73.0
6.9670000000000005,73.0
6.968,72.8
6.969,73.0
6.97,73.0
6.971,73.0
6.972,73.0
6.973,72.8
6.974,72.8
6.9750000000000005,72.8
6.976,73.0
6.977,73.0
6.978,73.0
6.979,73.0
6.98,73.0
6.981,73.0
6.982,72.8
6.9830000000000005,72.8
6.984,73.0
6.985,72.8
6.986,73.0
6.987,73.0
6.988,73.0
6.989,72.8
6.99,73.0
6.9910000000000005,72.8
6.992,73.0
6.993,72.8
6.994,72.8
6.995,72.8
6.996,72.8
6.997,73.0
6.998,72.8
6.9990000000000006,72.8
7.0,73.0
7.001,73.0
7.002,72.6
7.003,72.8
7.0040000000000004,73.0
7.005,72.8
7.006,72.8
7.007000000000001,73.0
7.008,72.6
7.009,72.8
7.01,72.8
7.011,72.8
7.0120000000000005,72.8
7.013,72.8
7.014,72.8
7.015000000000001,72.6
7.016,73.0
7.017,72.8
7.018,72.6
7.019,72.6
7.0200000000000005,72.6
7.021,72.8
7.022,72.6
7.023000000000001,72.8
7.024,72.8
7.025,72.6
7.026,72.6
7.027,72.6
7.0280000000000005,72.6
7.029,72.6
7.03,72.4
7.031000000000001,72.6
7.032,72.6
7.033,72.6
7.034,72.4
7.035,72.4
7.0360000000000005,72.6
7.037,72.6
7.038,72.4
7.039000000000001,72.6
7.04,72.4
7.041,72.6
7.042,72.6
7.043,72.4
7.0440000000000005,72.2
7.045,72.2
7.046,72.6
7.047,72.4
7.048,72.2
7.049,72.4
7.05,72.4
7.051,72.4
7.0520000000000005,72.4
7.053,72.2
7.054,72.4
7.055,72.0
7.056,72.2
7.057,72.2
7.058,72.2
7.059,72.2
7.0600000000000005,72.0
7.061,72.2
7.062,72.2
7.063,72.2
7.064,72.2
7.065,72.2
7.066,72.2
7.067,72.0
7.0680000000000005,71.8
7.069,72.0
7.07,72.0
7.071,72.0
7.072,72.0
7.073,71.8
7.074,71.8
7.075,72.0
7.0760000000000005,72.0
7.077,72.0
7.078,72.0
7.079,71.8
7.08,71.8
7.081,71.8
7.082,72.0
7.083,71.6
7.0840000000000005,71.8
7.085,71.8
7.086,71.8
7.087,71.8
7.088,71.4
7.089,71.6
7.09,71.8
7.091,72.0
7.0920000000000005,71.6
7.093,71.8
7.094,71.6
7.095,71.6
7.096,71.6
7.097,71.6
7.098,71.6
7.099,71.6
7.1000000000000005,71.6
7.101,71.2
7.102,71.4
7.103,71.4
7.104,71.4
7.105,71.2
7.106,71.4
7.107,71.2
7.1080000000000005,71.4
7.109,71.2
7.11,71.4
7.111,71.4
7.112,71.2
7.113,71.4
7.114,70.8
7.115,71.2
7.1160000000000005,71.0
7.117,71.2
7.118,71.0
7.119,71.0
7.12,71.2
7.121,71.0
7.122,71.2
7.123,71.2
7.1240000000000006,70.8
7.125,71.0
7.126,71.0
7.127,71.0
7.128,71.0
7.1290000000000004,70.6
7.13,71.0
7.131,70.8
7.132000000000001,71.0
7.133,70.6
7.134,70.8
7.135,70.8
7.136,70.8
7.1370000000000005,70.6
7.138,70.8
7.139,70.6
7.140000000000001,70.6
7.141,70.6
7.142,70.4
7.143,70.4
7.144,70.4
7.1450000000000005,70.6
7.146,70.4
7.147,70.2
7.148000000000001,70.4
7.149,70.4
7.15,70.4
7.151,70.4
7.152,70.2
7.1530000000000005,70.2
7.154,70.2
7.155,70.4
7.156000000000001,70.4
7.157,70.4
7.158,70.2
7.159,70.2
7.16,70.2
7.1610000000000005,70.4
7.162,70.2
7.163,70.0
7.164000000000001,69.8
7.165,70.2
7.166,69.8
7.167,69.8
7.168,69.8
7.1690000000000005,70.0
7.17,69.8
7.171,69.8
7.172,69.8
7.173,69.8
7.174,69.8
7.175,69.8
7.176,70.0
7.1770000000000005,69.6
7.178,69.6
7.179,69.8
7.18,69.6
7.181,69.4
7.182,69.6
7.183,69.4
7.184,69.6
7.1850000000000005,69.4
7.186,69.4
7.187,69.2
7.188,69.4
7.189,69.2
7.19,69.2
7.191,69.2
7.192,69.2
7.1930000000000005,69.4
7.194,69.0
7.195,69.2
7.196,69.2
7.197,68.8
7.198,69.0
7.199,69.2
7.2,68.8
7.2010000000000005,69.0
7.202,69.0
7.203,69.0
7.204,68.8
7.205,68.8
7.206,68.8
7.207,68.8
7.208,68.6
7.2090000000000005,68.8
7.21,68.8
7.211,68.6
7.212,68.8
7.213,68.6
7.214,68.6
7.215,68.4
7.216,68.6
7.2170000000000005,68.6
7.218,68.6
7.219,68.6
7.22,68.4
7.221,68.4
7.222,68.4
7.223,68.4
7.224,68.4
7.2250000000000005,68.4
7.226,68.2
7.227,68.2
7.228,68.0
7.229,68.2
7.23,68.0
7.231,68.2
7.232,68.0
7.2330000000000005,68.0
7.234,68.0
7.235,68.0
7.236,67.8
7.237,68.0
7.238,68.0
7.239,68.0
7.24,67.8
7.2410000000000005,67.8
7.242,67.8
7.243,67.8
7.244,67.8
7.245,67.8
7.246,67.8
7.247,67.6
7.248,67.8
7.2490000000000006,67.6
7.25,67.6
7.251,67.4
7.252,67.4
7.253,67.4
7.2540000000000004,67.4
7.255,67.4
7.256,67.4
7.257000000000001,67.4
7.258,67.4
7.259,67.4
7.26,67.2
7.261,67.2
7.2620000000000005,67.2
7.263,67.2
7.264,67.2
7.265000000000001,67.2
7.266,67.0
7.267,67.0
7.268,67.0
7.269,67.0
7.2700000000000005,67.2
7.271,67.0
7.272,66.8
7.273000000000001,66.8
7.274,66.8
7.275,66.8
7.276,66.8
7.277,66.8
7.2780000000000005,66.8
7.279,66.8
7.28,66.6
7.281000000000001,66.8
7.282,66.6
7.283,66.6
7.284,66.4
7.285,66.4
7.2860000000000005,66.4
7.287,66.6
7.288,66.6
7.289000000000001,66.6
7.29,66.4
7.291,66.6
7.292,66.6
7.293,66.2
7.2940000000000005,66.6
7.295,66.4
7.296,66.4
7.297,66.4
7.298,66.4
7.299,66.2
7.3,66.0
7.301,66.2
7.3020000000000005,66.2
7.303,66.0
7.304,66.2
7.305,65.8
7.306,66.0
7.307,66.0
7.308,66.2
7.309,66.0
7.3100000000000005,66.0
7.311,66.0
7.312,65.8
7.313,65.8
7.314,65.8
7.315,65.8
7.316,65.8
7.317,65.8
7.3180000000000005,65.8
7.319,65.6
7.32,65.8
7.321,66.0
7.322,65.6
7.323,65.8
7.324,65.8
7.325,65.6
7.3260000000000005,65.8
7.327,65.6
7.328,65.4
7.329,65.4
7.33,65.6
7.331,65.4
7.332,65.6
7.333,65.4
7.3340000000000005,65.4
7.335,65.2
7.336,65.4
7.337,65.4
7.338,65.4
7.339,65.4
7.34,65.2
7.341,65.2
7.3420000000000005,65.2
7.343,65.2
7.344,65.4
7.345,65.0
7.346,65.0
7.347,65.2
7.348,65.0
7.349,65.2
7.3500000000000005,65.0
7.351,65.0
7.352,65.0
7.353,65.0
7.354,64.8
7.355,65.0
7.356,65.0
7.357,65.0
7.3580000000000005,65.0
7.359,65.0
7.36,64.8
7.361,64.8
7.362,64.6
7.363,64.8
7.364,64.8
7.365,64.8
7.3660000000000005,64.8
7.367,65.0
7.368,64.8
7.369,64.8
7.37,64.6
7.371,64.6
7.372,64.6
7.373,64.6
7.3740000000000006,64.6
7.375,64.8
7.376,64.6
7.377,64.6
7.378,64.6
7.3790000000000004,64.6
7.38,64.6
7.381,64.4
7.382000000000001,64.6
7.383,64.4
7.384,64.6
7.385,64.2
7.386,64.4
7.3870000000000005,64.6
7.388,64.4
7.389,64.6
7.390000000000001,64.6
7.391,64.6
7.392,64.2
7.393,64.6
7.394,64.2
7.3950000000000005,64.2
7.396,64.6
7.397,64.4
7.398000000000001,64.2
7.399,64.2
7.4,64.4
7.401,64.4
7.402,64.2
7.4030000000000005,64.2
7.404,64.2
7.405,64.0
7.406000000000001,64.2
7.407,64.2
7.408,64.2
7.409,64.2
7.41,64.4
7.4110000000000005,64.0
7.412,64.2
7.413,64.2
7.414000000000001,64.2
7.415,64.2
7.416,64.2
7.417,64.2
7.418,64.2
7.4190000000000005,64.2
7.42,64.2
7.421,64.0
7.422000000000001,64.2
7.423,64.2
7.424,64.2
7.425,64.2
7.426,64.0
7.4270000000000005,64.2
7.428,64.0
7.429,64.2
7.43,64.0
7.431,64.2
7.432,64.0
7.433,64.2
7.434,64.0
7.4350000000000005,64.2
7.436,64.0
7.437,64.0
7.438,64.2
7.439,64.0
7.44,63.8
7.441,63.8
7.442,64.0
7.4430000000000005,64.0
7.444,63.8
7.445,64.0
7.446,64.0
7.447,63.8
7.448,64.2
7.449,63.8
7.45,64.0
7.4510000000000005,63.8
7.452,63.8
7.453,64.0
7.454,64.0
7.455,63.8
7.456,64.0
7.457,64.0
7.458,63.8
7.4590000000000005,64.2
7.46,64.0
7.461,63.8
7.462,64.0
7.463,64.0
7.464,63.8
7.465,63.8
7.466,64.0
7.4670000000000005,63.8
7.468,64.0
7.469,63.6
7.47,63.6
7.471,63.6
7.472,63.8
7.473,63.8
7.474,63.8
7.4750000000000005,63.8
7.476,63.8
7.477,63.6
7.478,64.0
7.479,63.6
7.48,63.8
7.481,64.0
7.482,63.8
7.4830000000000005,63.6
7.484,63.6
7.485,63.8
7.486,64.0
7.487,63.8
7.488,64.0
7.489,63.8
7.49,64.0
7.4910000000000005,63.6
7.492,63.8
7.493,63.8
7.494,64.0
7.495,63.6
7.496,63.8
7.497,63.8
7.498,63.8
7.4990000000000006,63.8
7.5,64.0
7.501,63.6
7.502,63.8
7.503,63.8
7.5040000000000004,63.8
7.505,63.8
7.506,64.0
7.507000000000001,63.8
7.508,64.0
7.509,64.0
7.51,63.8
7.511,63.6
7.5120000000000005,63.8
7.513,64.0
7.514,63.6
7.515000000000001,64.0
7.516,63.8
7.517,63.8
7.518,63.8
7.519,64.2
7.5200000000000005,63.8
7.521,63.8
7.522,64.2
7.523000000000001,64.0
7.524,64.2
7.525,63.8
7.526,63.8
7.527,63.8
7.5280000000000005,64.0
7.529,63.8
7.53,64.2
7.531000000000001,63.8
7.532,63.8
7.533,64.0
7.534,64.0
7.535,64.2
7.5360000000000005,64.2
7.537,64.2
7.538,63.8
7.539000000000001,63.8
7.54,64.0
7.541,64.2
7.542,64.0
7.543,64.0
7.5440000000000005,64.0
7.545,64.2
7.546,64.2
7.547000000000001,64.2
7.548,64.0
7.549,64.0
7.55,64.0
7.551,64.0
7.5520000000000005,64.0
7.553,64.2
7.554,64.2
7.555,64.0
7.556,64.2
7.557,64.2
7.558,64.2
7.559,64.4
7.5600000000000005,64.0
7.561,64.2
7.562,64.4
7.563,64.2
7.564,64.2
7.565,64.2
7.566,64.2
7.567,64.4
7.5680000000000005,64.2
7.569,64.0
7.57,64.2
7.571,64.4
7.572,64.4
7.573,64.4
7.574,64.2
7.575,64.2
7.5760000000000005,64.4
7.577,64.4
7.578,64.2
7.579,64.2
7.58,64.6
7.581,64.4
7.582,64.4
7.583,64.2
7.5840000000000005,64.6
7.585,64.4
7.586,64.4
7.587,64.4
7.588,64.4
7.589,64.2
7.59,64.2
7.591,64.6
7.5920000000000005,64.4
7.593,64.6
7.594,64.6
7.595,64.6
7.596,64.4
7.597,64.4
7.598,64.4
7.599,64.6
7.6000000000000005,64.6
7.601,64.8
7.602,64.4
7.603,64.6
7.604,64.6
7.605,64.6
7.606,64.6
7.607,64.8
7.6080000000000005,64.8
7.609,64.6
7.61,64.6
7.611,64.8
7.612,64.8
7.613,64.8
7.614,65.0
7.615,64.8
7.6160000000000005,64.8
7.617,64.8
7.618,65.0
7.619,64.8
7.62,65.0
7.621,65.0
7.622,65.0
7.623,65.0
7.6240000000000006,64.6
7.625,64.8
7.626,64.8
7.627,65.0
7.628,65.0
7.6290000000000004,64.8
7.63,65.0
7.631,65.2
7.632000000000001,64.8
7.633,65.2
7.634,65.2
7.635,65.0
7.636,65.2
7.6370000000000005,65.2
7.638,65.0
7.639,65.0
7.640000000000001,65.2
7.641,65.2
7.642,65.0
7.643,65.2
7.644,65.2
7.6450000000000005,65.4
7.646,65.4
7.647,65.2
7.648000000000001,65.2
7.649,65.2
7.65,65.4
7.651,65.4
7.652,65.4
7.6530000000000005,65.4
7.654,65.4
7.655,65.4
7.656000000000001,65.6
7.657,65.4
7.658,65.6
7.659,65.6
7.66,65.4
7.6610000000000005,65.6
7.662,65.6
7.663,65.4
7.664000000000001,65.6
7.665,65.6
7.666,65.8
7.667,65.6
7.668,65.6
7.6690000000000005,65.8
7.67,65.8
7.671,65.8
7.672000000000001,65.8
7.673,65.8
7.674,65.8
7.675,65.8
7.676,66.0
7.6770000000000005,66.0
7.678,65.8
7.679,66.0
7.68,65.8
7.681,66.0
7.682,65.8
7.683,66.0
7.684,66.2
7.6850000000000005,66.2
7.686,66.2
7.687,66.2
7.688,66.2
7.689,66.0
7.69,66.2
7.691,66.2
7.692,66.2
7.6930000000000005,66.2
7.694,66.4
7.695,66.2
7.696,66.2
7.697,66.4
7.698,66.4
7.699,66.4
7.7,66.6
7.7010000000000005,66.6
7.702,66.4
7.703,66.4
7.704,66.6
7.705,66.4
7.706,66.6
7.707,66.6
7.708,66.6
7.7090000000000005,66.6
7.71,66.6
7.711,66.6
7.712,66.6
7.713,66.6
7.714,66.8
7.715,66.8
7.716,66.8
7.7170000000000005,66.8
7.718,67.0
7.719,67.0
7.72,67.0
7.721,67.0
7.722,67.0
7.723,66.8
7.724,67.0
7.7250000000000005,67.2
7.726,67.0
7.727,67.0
7.728,67.2
7.729,67.2
7.73,67.2
7.731,67.2
7.732,67.2
7.7330000000000005,67.2
7.734,67.4
7.735,67.4
7.736,67.2
7.737,67.4
7.738,67.2
7.739,67.6
7.74,67.6
7.7410000000000005,67.4
7.742,67.6
7.743,67.6
7.744,67.6
7.745,67.6
7.746,67.6
7.747,67.8
7.748,67.6
7.7490000000000006,67.6
7.75,67.8
7.751,68.0
7.752,67.8
7.753,67.8
7.7540000000000004,68.0
7.755,68.0
7.756,68.0
7.757000000000001,67.8
7.758,67.8
7.759,68.0
7.76,68.0
7.761,68.0
7.7620000000000005,68.2
7.763,68.0
7.764,68.2
7.765000000000001,68.2
7.766,68.2
7.767,68.0
7.768,68.2
7.769,68.2
7.7700000000000005,68.4
7.771,68.4
7.772,68.4
7.773000000000001,68.4
7.774,68.4
7.775,68.6
7.776,68.6
7.777,68.6
7.7780000000000005,68.4
7.779,68.4
7.78,68.6
7.781000000000001,68.6
7.782,68.6
7.783,68.8
7.784,68.8
7.785,68.8
7.7860000000000005,68.6
7.787,69.0
7.788,68.8
7.789000000000001,69.0
7.79,68.8
7.791,69.0
7.792,69.0
7.793,69.0
7.7940000000000005,69.0
7.795,69.0
7.796,69.2
7.797000000000001,69.2
7.798,69.0
7.799,69.0
7.8,69.0
7.801,69.2
7.8020000000000005,69.2
7.803,69.4
7.804,69.0
7.805000000000001,69.2
7.806,69.4
7.807,69.4
7.808,69.4
7.809,69.4
7.8100000000000005,69.6
7.811,69.6
7.812,69.4
7.813,69.6
7.814,69.6
7.815,69.8
7.816,69.8
7.817,69.6
7.8180000000000005,69.8
7.819,69.8
7.82,69.8
7.821,69.8
7.822,69.6
7.823,70.0
7.824,70.0
7.825,70.0
7.8260000000000005,70.2
7.827,70.0
7.828,70.2
7.829,70.0
7.83,70.0
7.831,70.0
7.832,70.2
7.833,70.2
7.8340000000000005,70.2
7.835,70.0
7.836,70.0
7.837,70.2
7.838,70.4
7.839,70.4
7.84,70.2
7.841,70.2
7.8420000000000005,70.4
7.843,70.4
7.844,70.4
7.845,70.4
7.846,70.6
7.847,70.2
7.848,70.2
7.849,70.6
7.8500000000000005,70.6
7.851,70.6
7.852,70.4
7.853,70.6
7.854,70.8
7.855,70.6
7.856,70.8
7.857,70.4
7.8580000000000005,70.8
7.859,70.6
7.86,70.8
7.861,70.8
7.862,71.0
7.863,70.8
7.864,71.0
7.865,70.8
7.8660000000000005,70.8
7.867,71.0
7.868,70.8
7.869,71.0
7.87,71.2
7.871,71.0
7.872,71.0
7.873,71.2
7.8740000000000006,71.0
7.875,71.0
7.876,71.0
7.877,71.2
7.878,71.0
7.8790000000000004,71.2
7.88,71.2
7.881,71.2
7.882000000000001,71.2
7.883,71.6
7.884,71.2
7.885,71.4
7.886,71.4
7.8870000000000005,71.4
7.888,71.4
7.889,71.4
7.890000000000001,71.4
7.891,71.4
7.892,71.4
7.893,71.4
7.894,71.6
7.8950000000000005,71.6
7.896,71.4
7.897,71.6
7.898000000000001,71.6
7.899,71.6
7.9,71.6
7.901,71.8
7.902,71.8
7.9030000000000005,71.8
7.904,71.6
7.905,72.0
7.906000000000001,71.6
7.907,71.6
7.908,71.6
7.909,72.0
7.91,71.8
7.9110000000000005,72.0
7.912,72.0
7.913,71.8
7.914000000000001,72.0
7.915,72.0
7.916,72.0
7.917,72.0
7.918,72.2
7.9190000000000005,72.0
7.92,72.0
7.921,71.8
7.922000000000001,72.2
7.923,72.0
7.924,72.2
7.925,72.0
7.926,72.0
7.9270000000000005,72.2
7.928,72.0
7.929,72.2
7.930000000000001,72.2
7.931,72.0
7.932,72.4
7.933,72.4
7.934,72.0
7.9350000000000005,72.2
7.936,72.0
7.937,72.2
7.938,72.6
7.939,72.2
7.94,72.2
7.941,72.4
7.942,72.4
7.9430000000000005,72.4
7.944,72.4
7.945,72.4
7.946,72.2
7.947,72.2
7.948,72.4
7.949,72.6
7.95,72.4
7.9510000000000005,72.4
7.952,72.6
7.953,72.4
7.954,72.6
7.955,72.6
7.956,72.4
7.957,72.6
7.958,72.4
7.9590000000000005,72.6
7.96,72.4
7.961,72.6
7.962,72.6
7.963,72.6
7.964,72.4
7.965,72.4
7.966,72.6
7.9670000000000005,72.6
7.968,73.0
7.969,72.8
7.97,72.6
7.971,72.6
7.972,72.8
7.973,72.6
7.974,72.8
7.9750000000000005,72.4
7.976,72.8
7.977,72.6
7.978,72.6
7.979,72.6
7.98,72.6
7.981,72.8
7.982,72.8
7.9830000000000005,72.8
7.984,73.0
7.985,73.0
7.986,72.6
7.987,72.8
7.988,72.8
7.989,72.8
7.99,73.0
7.9910000000000005,73.0
7.992,72.6
7.993,73.0
7.994,72.8
7.995,72.8
7.996,72.8
7.997,73.0
7.998,72.8
7.9990000000000006,73.0
8.0,73.0
8.001,73.0
8.002,73.0
8.003,73.0
8.004,72.8
8.005,72.8
8.006,73.0
8.007,73.0
8.008000000000001,73.0
8.009,72.8
8.01,73.0
8.011000000000001,73.0
8.012,73.0
8.013,73.0
8.014,73.2
8.015,73.0
8.016,73.0
8.017,72.8
8.018,72.8
8.019,73.0
8.02,72.8
8.021,73.0
8.022,73.0
8.023,72.8
8.024000000000001,72.8
8.025,73.0
8.026,73.0
8.027000000000001,73.0
8.028,73.0
8.029,73.0
8.03,73.0
8.031,73.0
8.032,73.0
8.033,73.0
8.034,72.8
8.035,72.8
8.036,73.0
8.037,73.0
8.038,72.8
8.039,72.8
8.040000000000001,73.0
8.041,73.0
8.042,73.0
8.043000000000001,72.8
8.044,72.8
8.045,72.8
8.046,72.6
8.047,73.0
8.048,73.0
8.049,73.0
8.05,73.0
8.051,73.0
8.052,72.8
8.053,73.0
8.054,73.0
8.055,72.8
8.056000000000001,72.8
8.057,72.8
8.058,73.0
8.059000000000001,72.8
8.06,72.8
8.061,73.0
8.062,73.0
8.063,72.8
8.064,72.8
8.065,72.6
8.066,73.0
8.067,73.0
8.068,72.8
8.069,72.6
8.07,72.8
8.071,72.8
8.072000000000001,72.8
8.073,72.8
8.074,72.6
8.075,72.8
8.076,72.8
8.077,72.8
8.078,72.6
8.079,72.8
8.08,72.8
8.081,72.6
8.082,72.8
8.083,72.6
8.084,72.8
8.085,72.6
8.086,72.8
8.087,72.4
8.088000000000001,72.6
8.089,72.6
8.09,72.8
8.091,72.4
8.092,72.6
8.093,72.6
8.094,72.4
8.095,72.2
8.096,72.6
8.097,72.4
8.098,72.4
8.099,72.6
8.1,72.4
8.101,72.2
8.102,72.6
8.103,72.4
8.104000000000001,72.2
8.105,72.2
8.106,72.4
8.107,72.4
8.108,72.4
8.109,72.4
8.11,72.4
8.111,72.2
8.112,72.4
8.113,72.6
8.114,72.2
8.115,72.2
8.116,72.2
8.117,72.2
8.118,72.4
8.119,72.0
8.120000000000001,72.2
8.121,72.4
8.122,72.4
8.123,72.0
8.124,72.0
8.125,72.2
8.126,72.4
8.127,72.0
8.128,72.2
8.129,72.0
8.13,72.0
8.131,72.2
8.132,72.0
8.133000000000001,72.0
8.134,71.8
8.135,72.2
8.136000000000001,72.2
8.137,72.0
8.138,72.0
8.139,72.0
8.14,72.2
8.141,72.0
8.142,71.8
8.143,71.8
8.144,71.8
8.145,71.8
8.146,72.0
8.147,72.0
8.148,72.0
8.149000000000001,71.6
8.15,71.8
8.151,71.8
8.152000000000001,72.0
8.153,72.0
8.154,71.6
8.155,71.6
8.156,71.4
8.157,71.4
8.158,71.6
8.159,71.8
8.16,71.6
8.161,71.6
8.162,71.4
8.163,71.4
8.164,71.6
8.165000000000001,71.6
8.166,71.6
8.167,71.4
8.168000000000001,71.2
8.169,71.4
8.17,71.4
8.171,71.6
8.172,71.2
8.173,71.2
8.174,71.2
8.175,71.2
8.176,71.0
8.177,71.0
8.178,71.4
8.179,71.2
8.18,71.0
8.181000000000001,71.2
8.182,71.0
8.183,71.2
8.184000000000001,71.0
8.185,71.2
8.186,71.0
8.187,71.0
8.188,71.0
8.189,71.0
8.19,70.8
8.191,71.0
8.192,71.0
8.193,70.8
8.194,70.8
8.195,71.0
8.196,70.8
8.197000000000001,70.6
8.198,70.8
8.199,70.6
8.2,70.8
8.201,70.8
8.202,70.6
8.203,70.4
8.204,70.6
8.205,70.4
8.206,70.8
8.207,70.4
8.208,70.6
8.209,70.4
8.21,70.2
8.211,70.4
8.212,70.4
8.213000000000001,70.2
8.214,70.4
8.215,70.4
8.216,70.4
8.217,70.4
8.218,70.2
8.219,70.4
8.22,70.2
8.221,70.2
8.222,70.0
8.223,70.4
8.224,70.2
8.225,70.2
8.226,70.0
8.227,70.0
8.228,70.0
8.229000000000001,70.0
8.23,70.0
8.231,69.8
8.232,69.6
8.233,69.6
8.234,69.6
8.235,70.0
8.236,69.6
8.237,69.6
8.238,69.8
8.239,69.6
8.24,69.8
8.241,69.6
8.242,69.6
8.243,69.4
8.244,69.4
8.245000000000001,69.6
8.246,69.6
8.247,69.4
8.248,69.4
8.249,69.4
8.25,69.4
8.251,69.4
8.252,69.6
8.253,69.2
8.254,69.2
8.255,69.2
8.256,69.2
8.257,69.2
8.258000000000001,69.0
8.259,69.0
8.26,69.0
8.261000000000001,68.8
8.262,68.8
8.263,69.0
8.264,69.0
8.265,68.8
8.266,68.8
8.267,68.8
8.268,68.8
8.269,69.0
8.27,68.8
8.271,68.8
8.272,68.6
8.273,68.6
8.274000000000001,68.8
8.275,68.8
8.276,68.6
8.277000000000001,68.4
8.278,68.6
8.279,68.4
8.28,68.6
8.281,68.6
8.282,68.6
8.283,68.2
8.284,68.4
8.285,68.4
8.286,68.2
8.287,68.0
8.288,68.4
8.289,68.2
8.290000000000001,68.2
8.291,68.2
8.292,68.0
8.293000000000001,68.0
8.294,68.0
8.295,68.0
8.296,68.2
8.297,67.8
8.298,67.8
8.299,68.0
8.3,67.8
8.301,68.0
8.302,67.8
8.303,68.0
8.304,67.6
8.305,67.8
8.306000000000001,67.8
8.307,67.8
8.308,67.8
8.309000000000001,67.6
8.31,67.8
8.311,67.6
8.312,67.8
8.313,67.6
8.314,67.6
8.315,67.4
8.316,67.4
8.317,67.4
8.318,67.4
8.319,67.2
8.32,67.4
8.321,67.4
8.322000000000001,67.2
8.323,67.2
8.324,67.2
8.325,67.2
8.326,67.0
8.327,67.2
8.328,67.0
8.329,67.0
8.33,67.2
8.331,67.2
8.332,66.8
8.333,67.2
8.334,67.2
8.335,67.0
8.336,66.8
8.337,67.0
8.338000000000001,67.0
8.339,66.8
8.34,66.6
8.341,66.8
8.342,66.8
8.343,66.6
8.344,66.6
8.345,66.8
8.346,66.6
8.347,66.6
8.348,66.6
8.349,66.6
8.35,66.6
8.351,66.6
8.352,66.4
8.353,66.4
8.354000000000001,66.4
8.355,66.4
8.356,66.4
8.357,66.4
8.358,66.4
8.359,66.4
8.36,66.0
8.361,66.2
8.362,66.2
8.363,66.2
8.364,66.2
8.365,66.2
8.366,66.0
8.367,66.0
8.368,66.0
8.369,66.2
8.370000000000001,66.0
8.371,66.0
8.372,66.0
8.373,65.8
8.374,66.0
8.375,65.8
8.376,66.0
8.377,66.0
8.378,65.8
8.379,65.8
8.38,65.8
8.381,65.8
8.382,65.8
8.383000000000001,65.8
8.384,65.6
8.385,65.6
8.386000000000001,65.8
8.387,65.8
8.388,65.4
8.389,65.4
8.39,65.6
8.391,65.6
8.392,65.2
8.393,65.6
8.394,65.4
8.395,65.4
8.396,65.4
8.397,65.4
8.398,65.4
8.399000000000001,65.4
8.4,65.2
8.401,64.8
8.402000000000001,65.2
8.403,65.2
8.404,65.2
8.405,65.2
8.406,65.2
8.407,65.4
8.408,65.0
8.409,65.2
8.41,65.2
8.411,65.0
8.412,65.2
8.413,65.0
8.414,64.8
8.415000000000001,65.2
8.416,64.8
8.417,65.2
8.418000000000001,65.0
8.419,65.0
8.42,64.8
8.421,64.8
8.422,64.8
8.423,65.0
8.424,64.8
8.425,65.0
8.426,64.8
8.427,64.8
8.428,64.8
8.429,64.8
8.43,64.4
8.431000000000001,64.6
8.432,64.8
8.433,64.8
8.434000000000001,64.4
8.435,64.6
8.436,64.8
8.437,64.8
8.438,64.6
8.439,64.6
8.44,64.6
8.441,64.4
8.442,64.6
8.443,64.6
8.444,64.6
8.445,64.6
8.446,64.4
8.447000000000001,64.6
8.448,64.6
8.449,64.6
8.45,64.4
8.451,64.4
8.452,64.6
8.453,64.4
8.454,64.6
8.455,64.4
8.456,64.4
8.457,64.4
8.458,64.2
8.459,64.2
8.46,64.0
8.461,64.2
8.462,64.2
8.463000000000001,64.2
8.464,64.2
8.465,64.0
8.466,64.2
8.467,64.2
8.468,64.4
8.469,64.2
8.47,64.0
8.471,64.2
8.472,64.4
8.473,64.2
8.474,64.0
8.475,64.4
8.476,64.2
8.477,64.2
8.478,64.2
8.479000000000001,64.2
8.48,64.2
8.481,64.0
8.482,64.2
8.483,64.2
8.484,64.2
8.485,64.2
8.486,64.2
8.487,64.0
8.488,64.0
8.489,64.2
8.49,64.0
8.491,64.0
8.492,64.2
8.493,64.0
8.494,64.0
8.495000000000001,64.2
8.496,64.0
8.497,64.0
8.498,64.2
8.499,64.2
8.5,64.0
8.501,64.0
8.502,64.0
8.503,64.2
8.504,63.8
8.505,64.0
8.506,64.2
8.507,63.8
8.508000000000001,64.0
8.509,63.8
8.51,64.0
8.511000000000001,64.0
8.512,63.8
8.513,64.0
8.514,64.0
8.515,63.6
8.516,63.8
8.517,63.8
8.518,64.0
8.519,63.8
8.52,63.8
8.521,64.0
8.522,64.0
8.523,64.0
8.524000000000001,64.0
8.525,63.8
8.526,63.8
8.527000000000001,63.8
8.528,63.8
8.529,63.8
8.53,63.6
8.531,63.8
8.532,63.8
8.533,63.8
8.534,63.8
8.535,64.0
8.536,64.0
8.537,63.8
8.538,63.8
8.539,63.6
8.540000000000001,63.8
8.541,63.8
8.542,63.8
8.543000000000001,63.8
8.544,63.8
8.545,63.8
8.546,63.8
8.547,63.8
8.548,64.0
8.549,64.2
8.55,63.8
8.551,64.0
8.552,63.6
8.553,63.6
8.554,63.6
8.555,64.0
8.556000000000001,64.0
8.557,63.8
8.558,63.6
8.559000000000001,63.8
8.56,63.6
8.561,64.0
8.562,63.8
8.563,64.0
8.564,64.0
8.565,63.8
8.566,63.8
8.567,63.8
8.568,63.8
8.569,63.8
8.57,63.8
8.571,63.8
8.572000000000001,64.0
8.573,63.6
8.574,64.0
8.575000000000001,64.0
8.576,64.0
8.577,64.0
8.578,64.0
8.579,64.0
8.58,63.8
8.581,64.2
8.582,63.8
8.583,63.8
8.584,64.0
8.585,64.0
8.586,64.0
8.587,63.8
8.588000000000001,64.2
8.589,64.0
8.59,64.0
8.591,64.2
8.592,64.0
8.593,63.8
8.594,64.0
8.595,64.0
8.596,64.0
8.597,64.2
8.598,64.2
8.599,64.0
8.6,64.0
8.601,64.0
8.602,64.2
8.603,64.0
8.604000000000001,64.0
8.605,64.0
8.606,64.0
8.607,64.2
8.608,64.2
8.609,64.2
8.61,64.2
8.611,64.2
8.612,64.2
8.613,64.2
8.614,64.0
8.615,64.2
8.616,64.2
8.617,64.2
8.618,64.0
8.619,64.2
8.620000000000001,64.2
8.621,64.2
8.622,64.0
8.623,64.2
8.624,64.2
8.625,64.2
8.626,64.2
8.627,64.4
8.628,64.0
8.629,64.2
8.63,64.2
8.631,64.4
8.632,64.2
8.633000000000001,64.2
8.634,64.2
8.635,64.4
8.636000000000001,64.2
8.637,64.2
8.638,64.2
8.639,64.2
8.64,64.2
8.641,64.4
8.642,64.4
8.643,64.4
8.644,64.2
8.645,64.4
8.646,64.4
8.647,64.6
8.648,64.4
8.649000000000001,64.2
8.65,64.4
8.651,64.4
8.652000000000001,64.4
8.653,64.4
8.654,64.6
8.655,64.6
8.656,64.6
8.657,64.4
8.658,64.4
8.659,64.6
8.66,64.6
8.661,64.6
8.662,64.6
8.663,64.6
8.664,64.6
8.665000000000001,64.4
8.666,64.6
8.667,64.4
8.668000000000001,64.6
8.669,64.8
8.67,64.6
8.671,64.6
8.672,64.8
8.673,64.8
8.674,64.8
8.675,64.6
8.676,65.0
8.677,64.8
8.678,64.8
8.679,64.6
8.68,64.8
8.681000000000001,64.8
8.682,65.0
8.683,65.0
8.684000000000001,65.0
8.685,64.6
8.686,64.8
8.687,64.8
8.688,65.0
8.689,64.6
8.69,65.0
8.691,64.8
8.692,65.0
8.693,65.0
8.694,65.2
8.695,65.0
8.696,65.0
8.697000000000001,65.2
8.698,65.0
8.699,65.2
8.700000000000001,65.0
8.701,65.2
8.702,65.0
8.703,65.4
8.704,65.2
8.705,65.2
8.706,65.2
8.707,65.2
8.708,65.4
8.709,65.4
8.71,65.4
8.711,65.2
8.712,65.4
8.713000000000001,65.2
8.714,65.4
8.715,65.2
8.716,65.6
8.717,65.4
8.718,65.4
8.719,65.6
8.72,65.8
8.721,65.6
8.722,65.8
8.723,65.6
8.724,65.8
8.725,65.6
8.726,65.6
8.727,65.6
8.728,65.4
8.729000000000001,65.6
8.73,65.8
8.731,65.6
8.732,65.6
8.733,65.8
8.734,65.6
8.735,65.8
8.736,65.6
8.737,65.6
8.738,65.8
8.739,65.8
8.74,66.0
8.741,65.8
8.742,66.0
8.743,65.8
8.744,66.0
8.745000000000001,66.0
8.746,66.2
8.747,66.2
8.748,66.0
8.749,66.2
8.75,66.0
8.751,66.2
8.752,66.2
8.753,66.2
8.754,66.2
8.755,66.4
8.756,66.2
8.757,66.2
8.758000000000001,66.2
8.759,66.4
8.76,66.4
8.761000000000001,66.4
8.762,66.4
8.763,66.2
8.764,66.6
8.765,66.4
8.766,66.6
8.767,66.6
8.768,66.6
8.769,66.6
8.77,66.8
8.771,66.6
8.772,66.6
8.773,66.6
8.774000000000001,66.8
8.775,66.6
8.776,66.8
8.777000000000001,67.0
8.778,66.6
8.779,66.8
8.78,66.8
8.781,66.8
8.782,67.0
8.783,67.0
8.784,67.0
8.785,67.2
8.786,67.0
8.787,67.0
8.788,67.2
8.789,67.2
8.790000000000001,67.2
8.791,67.2
8.792,67.4
8.793000000000001,67.0
8.794,67.2
8.795,67.4
8.796,67.4
8.797,67.2
8.798,67.4
8.799,67.2
8.8,67.4
8.801,67.6
8.802,67.4
8.803,67.6
8.804,67.6
8.805,67.4
8.806000000000001,67.6
8.807,67.4
8.808,67.6
8.809000000000001,67.8
8.81,67.8
8.811,67.8
8.812,67.8
8.813,67.6
8.814,67.8
8.815,67.6
8.816,68.0
8.817,68.0
8.818,68.0
8.819,67.8
8.82,68.0
8.821,67.8
8.822000000000001,68.0
8.823,68.0
8.824,68.2
8.825000000000001,68.0
8.826,68.0
8.827,68.2
8.828,68.2
8.829,68.4
8.83,68.2
8.831,68.4
8.832,68.2
8.833,68.4
8.834,68.4
8.835,68.4
8.836,68.4
8.837,68.4
8.838000000000001,68.4
8.839,68.6
8.84,68.6
8.841,68.6
8.842,68.8
8.843,68.6
8.844,68.6
8.845,68.6
8.846,68.8
8.847,68.8
8.848,68.8
8.849,68.6
8.85,68.8
8.851,69.0
8.852,68.8
8.853,69.0
8.854000000000001,68.8
8.855,69.0
8.856,69.0
8.857,69.0
8.858,68.8
8.859,69.0
8.86,69.0
8.861,69.2
8.862,69.2
8.863,69.0
8.864,69.2
8.865,69.2
8.866,69.0
8.867,69.2
8.868,69.2
8.869,69.4
8.870000000000001,69.2
8.871,69.4
8.872,69.4
8.873,69.4
8.874,69.6
8.875,69.6
8.876,69.6
8.877,69.4
8.878,69.8
8.879,69.6
8.88,69.8
8.881,69.8
8.882,70.0
8.883000000000001,69.6
8.884,69.8
8.885,69.8
8.886000000000001,69.8
8.887,69.8
8.888,70.2
8.889,70.0
8.89,69.8
8.891,70.0
8.892,70.2
8.893,70.0
8.894,70.4
8.895,70.2
8.896,70.2
8.897,70.0
8.898,70.2
8.899000000000001,70.4
8.9,70.2
8.901,70.0
8.902000000000001,70.4
8.903,70.2
8.904,70.4
8.905,70.4
8.906,70.2
8.907,70.4
8.908,70.4
8.909,70.4
8.91,70.4
8.911,70.4
8.912,70.4
8.913,70.6
8.914,70.6
8.915000000000001,70.6
8.916,70.6
8.917,70.6
8.918000000000001,70.8
8.919,70.6
8.92,70.8
8.921,70.8
8.922,70.8
8.923,71.0
8.924,70.6
8.925,70.8
8.926,70.6
8.927,71.0
8.928,70.8
8.929,70.6
8.93,70.8
8.931000000000001,70.8
8.932,71.0
8.933,71.0
8.934000000000001,71.0
8.935,71.2
8.936,71.2
8.937,71.0
8.938,71.0
8.939,71.2
8.94,71.4
8.941,71.2
8.942,71.0
8.943,71.4
8.944,71.2
8.945,71.4
8.946,71.2
8.947000000000001,71.4
8.948,71.2
8.949,71.2
8.950000000000001,71.4
8.951,71.6
8.952,71.4
8.953,71.6
8.954,71.2
8.955,71.4
8.956,71.4
8.957,71.6
8.958,71.6
8.959,71.6
8.96,71.4
8.961,71.6
8.962,71.8
8.963000000000001,72.0
8.964,71.8
8.965,71.6
8.966,71.8
8.967,71.6
8.968,71.6
8.969,71.8
8.97,72.0
8.971,71.8
8.972,72.0
8.973,72.0
8.974,72.0
8.975,72.0
8.976,71.8
8.977,72.0
8.978,71.8
8.979000000000001,72.0
8.98,72.0
8.981,72.0
8.982,72.0
8.983,71.8
8.984,72.0
8.985,71.8
8.986,72.0
8.987,72.2
8.988,72.2
8.989,72.2
8.99,72.2
8.991,72.2
8.992,72.0
8.993,72.2
8.994,72.2
8.995000000000001,72.2
8.996,72.2
8.997,72.0
8.998,72.2
8.999,72.2
9.0,72.4
9.001,72.4
9.002,72.2
9.003,72.6
9.004,72.4
9.005,72.2
9.006,72.4
9.007,72.4
9.008000000000001,72.4
9.009,72.4
9.01,72.2
9.011000000000001,72.4
9.012,72.4
9.013,72.6
9.014,72.4
9.015,72.6
9.016,72.4
9.017,72.4
9.018,72.4
9.019,72.6
9.02,72.6
9.021,72.8
9.022,72.6
9.023,72.4
9.024000000000001,72.4
9.025,72.4
9.026,72.6
9.027000000000001,72.8
9.028,72.6
9.029,72.6
9.03,72.8
9.031,72.6
9.032,72.6
9.033,72.4
9.034,72.6
9.035,72.6
9.036,72.4
9.037,72.8
9.038,73.0
9.039,72.8
9.040000000000001,72.8
9.041,72.6
9.042,72.8
9.043000000000001,72.8
9.044,72.8
9.045,72.6
9.046,72.8
9.047,72.8
9.048,72.6
9.049,72.8
9.05,73.0
9.051,72.8
9.052,72.8
9.053,72.8
9.054,72.8
9.055,72.8
9.056000000000001,72.8
9.057,73.0
9.058,72.8
9.059000000000001,72.8
9.06,73.0
9.061,72.8
9.062,73.0
9.063,73.0
9.064,72.8
9.065,73.0
9.066,73.0
9.067,72.8
9.068,72.6
9.069,73.0
9.07,73.0
9.071,73.0
9.072000000000001,73.2
9.073,73.0
9.074,73.0
9.075000000000001,72.8
9.076,73.0
9.077,73.0
9.078,73.0
9.079,73.2
9.08,73.0
9.081,72.8
9.082,72.8
9.083,73.2
9.084,73.0
9.085,72.8
9.086,73.0
9.087,73.0
9.088000000000001,73.0
9.089,73.0
9.09,73.0
9.091,73.0
9.092,73.0
9.093,73.0
9.094,72.8
9.095,72.8
9.096,73.2
9.097,73.0
9.098,73.0
9.099,73.0
9.1,73.0
9.101,72.8
9.102,73.0
9.103,72.8
9.104000000000001,73.0
9.105,73.0
9.106,73.0
9.107,73.0
9.108,72.8
9.109,72.8
9.11,73.0
9.111,72.8
9.112,73.0
9.113,73.0
9.114,73.0
9.115,73.0
9.116,73.0
9.117,72.8
9.118,73.0
9.119,73.0
9.120000000000001,72.8
9.121,73.0
9.122,73.0
9.123,72.6
9.124,72.8
9.125,73.0
9.126,72.8
9.127,72.6
9.128,72.8
9.129,73.0
9.13,72.8
9.131,72.8
9.132,72.6
9.133000000000001,72.8
9.134,72.8
9.135,72.6
9.136000000000001,72.8
9.137,73.0
9.138,72.8
9.139,72.8
9.14,72.8
9.141,72.6
9.142,72.8
9.143,72.6
9.144,72.6
9.145,72.6
9.146,72.6
9.147,72.6
9.148,72.6
9.149000000000001,72.8
9.15,72.6
9.151,72.6
9.152000000000001,72.6
9.153,72.4
9.154,72.6
9.155,72.8
9.156,72.6
9.157,72.6
9.158,72.4
9.159,72.6
9.16,72.4
9.161,72.6
9.162,72.4
9.163,72.4
9.164,72.6
9.165000000000001,72.4
9.166,72.4
9.167,72.2
9.168000000000001,72.6
9.169,72.4
9.17,72.4
9.171,72.2
9.172,72.4
9.173,72.4
9.174,72.2
9.175,72.4
9.176,72.0
9.177,72.4
9.178,72.4
9.179,72.4
9.18,72.4
9.181000000000001,72.0
9.182,72.4
9.183,72.2
9.184000000000001,72.0
9.185,72.2
9.186,72.0
9.187,72.2
9.188,72.2
9.189,72.2
9.19,72.0
9.191,72.2
9.192,72.2
9.193,72.0
9.194,72.0
9.195,72.0
9.196,72.2
9.197000000000001,72.0
9.198,72.0
9.199,72.2
9.200000000000001,71.8
9.201,72.0
9.202,72.0
9.203,71.8
9.204,72.0
9.205,72.0
9.206,72.0
9.207,72.0
9.208,71.8
9.209,72.0
9.21,71.8
9.211,71.8
9.212,71.6
9.213000000000001,71.6
9.214,71.8
9.215,71.6
9.216000000000001,71.6
9.217,71.6
9.218,71.6
9.219,71.6
9.22,71.6
9.221,71.4
9.222,71.4
9.223,71.4
9.224,71.6
9.225,71.6
9.226,71.2
9.227,71.2
9.228,71.6
9.229000000000001,71.6
9.23,71.6
9.231,71.2
9.232,71.2
9.233,71.2
9.234,71.2
9.235,71.4
9.236,71.2
9.237,71.4
9.238,71.2
9.239,71.2
9.24,71.2
9.241,71.2
9.242,71.2
9.243,70.8
9.244,71.0
9.245000000000001,71.0
9.246,71.0
9.247,71.2
9.248,71.2
9.249,71.0
9.25,71.0
9.251,71.0
9.252,71.0
9.253,70.8
9.254,70.8
9.255,70.8
9.256,71.0
9.257,70.8
9.258000000000001,70.6
9.259,70.8
9.26,70.8
9.261000000000001,70.8
9.262,70.6
9.263,70.6
9.264,70.4
9.265,70.6
9.266,70.4
9.267,70.6
9.268,70.4
9.269,70.6
9.27,70.8
9.271,70.6
9.272,70.4
9.273,70.2
9.274000000000001,70.6
9.275,70.4
9.276,70.6
9.277000000000001,70.4
9.278,70.4
9.279,70.2
9.28,70.0
9.281,70.4
9.282,70.2
9.283,70.2
9.284,70.4
9.285,70.0
9.286,70.0
9.287,70.0
9.288,70.0
9.289,69.8
9.290000000000001,70.0
9.291,70.0
9.292,70.0
9.293000000000001,69.8
9.294,69.8
9.295,70.0
9.296,69.8
9.297,69.8
9.298,70.0
9.299,69.6
9.3,69.8
9.301,69.6
9.302,69.8
9.303,69.6
9.304,69.8
9.305,69.6
9.306000000000001,69.6
9.307,69.4
9.308,69.6
9.309000000000001,69.2
9.31,69.4
9.311,69.2
9.312,69.4
9.313,69.4
9.314,69.2
9.315,69.2
9.316,69.2
9.317,69.2
9.318,69.2
9.319,69.0
9.32,69.2
9.321,69.0
9.322000000000001,69.2
9.323,69.0
9.324,68.8
9.325000000000001,68.8
9.326,68.8
9.327,69.0
9.328,69.0
9.329,68.8
9.33,68.8
9.331,68.8
9.332,68.8
9.333,68.8
9.334,68.8
9.335,68.8
9.336,68.8
9.337,68.6
9.338000000000001,68.4
9.339,68.6
9.34,68.4
9.341000000000001,68.6
9.342,68.6
9.343,68.4
9.344,68.4
9.345,68.2
9.346,68.4
9.347,68.4
9.348,68.4
9.349,68.4
9.35,68.2
9.351,68.2
9.352,68.2
9.353,68.2
9.354000000000001,68.2
9.355,68.2
9.356,68.2
9.357,68.0
9.358,68.2
9.359,68.0
9.36,68.2
9.361,67.8
9.362,68.0
9.363,67.8
9.364,68.2
9.365,67.8
9.366,67.8
9.367,67.8
9.368,67.8
9.369,67.8
9.370000000000001,67.6
9.371,67.8
9.372,67.4
9.373,67.4
9.374,67.6
9.375,67.6
9.376,67.4
9.377,67.4
9.378,67.4
9.379,67.4
9.38,67.6
9.381,67.4
9.382,67.2
9.383000000000001,67.4
9.384,67.2
9.385,67.2
9.386000000000001,67.2
9.387,67.2
9.388,67.0
9.389,67.2
9.39,67.2
9.391,67.2
9.392,67.0
9.393,67.0
9.394,67.0
9.395,67.2
9.396,67.0
9.397,66.8
9.398,66.8
9.399000000000001,66.8
9.4,66.8
9.401,66.8
9.402000000000001,66.8
9.403,66.8
9.404,66.8
9.405,66.6
9.406,66.6
9.407,66.8
9.408,66.6
9.409,66.6
9.41,66.6
9.411,66.6
9.412,66.6
9.413,66.4
9.414,66.4
9.415000000000001,66.4
9.416,66.4
9.417,66.4
9.418000000000001,66.4
9.419,66.4
9.42,66.2
9.421,66.2
9.422,66.4
9.423,66.4
9.424,66.2
9.425,66.2
9.426,66.2
9.427,66.2
9.428,66.2
9.429,66.0
9.43,66.0
9.431000000000001,65.8
9.432,66.0
9.433,66.2
9.434000000000001,66.0
9.435,66.0
9.436,65.8
9.437,66.0
9.438,66.0
9.439,65.8
9.44,66.0
9.441,65.6
9.442,65.8
9.443,65.6
9.444,65.6
9.445,65.8
9.446,65.8
9.447000000000001,65.8
9.448,65.8
9.449,65.6
9.450000000000001,65.4
9.451,65.4
9.452,65.8
9.453,65.6
9.454,65.6
9.455,65.4
9.456,65.4
9.457,65.6
9.458,65.6
9.459,65.4
9.46,65.4
9.461,65.4
9.462,65.2
9.463000000000001,65.2
9.464,65.2
9.465,65.4
9.466000000000001,65.2
9.467,65.2
9.468,65.2
9.469,65.2
9.47,65.2
9.471,65.0
9.472,65.0
9.473,65.0
9.474,65.2
9.475,65.0
9.476,65.2
9.477,65.0
9.478,65.0
9.479000000000001,65.0
9.48,65.0
9.481,64.6
9.482,65.0
9.483,64.8
9.484,64.8
9.485,64.8
9.486,64.8
9.487,64.6
9.488,64.8
9.489,65.0
9.49,64.6
9.491,64.6
9.492,64.8
9.493,64.8
9.494,64.6
9.495000000000001,64.8
9.496,64.8
9.497,64.6
9.498,64.6
9.499,64.8
9.5,64.6
9.501,64.6
9.502,64.6
9.503,64.6
9.504,64.6
9.505,64.6
9.506,64.8
9.507,64.4
9.508000000000001,64.6
9.509,64.4
9.51,64.4
9.511000000000001,64.6
9.512,64.6
9.513,64.6
9.514,64.4
9.515,64.4
9.516,64.4
9.517,64.4
9.518,64.4
9.519,64.2
9.52,64.2
9.521,64.4
9.522,64.2
9.523,64.2
9.524000000000001,64.4
9.525,64.2
9.526,64.2
9.527000000000001,64.4
9.528,64.2
9.529,64.2
9.53,64.2
9.531,64.2
9.532,64.2
9.533,64.4
9.534,64.2
9.535,64.0
9.536,64.2
9.537,64.2
9.538,64.2
9.539,64.2
9.540000000000001,64.0
9.541,64.2
9.542,64.2
9.543000000000001,64.2
9.544,64.2
9.545,64.0
9.546,64.2
9.547,64.2
9.548,64.0
9.549,64.2
9.55,64.0
9.551,64.2
9.552,64.2
9.553,64.2
9.554,64.0
9.555,64.0
9.556000000000001,64.0
9.557,64.2
9.558,64.0
9.559000000000001,64.0
9.56,64.2
9.561,64.0
9.562,64.0
9.563,63.8
9.564,64.0
9.565,64.2
9.566,64.2
9.567,64.2
9.568,64.0
9.569,63.8
9.57,64.0
9.571,64.0
9.572000000000001,63.8
9.573,64.2
9.574,64.0
9.575000000000001,64.2
9.576,63.8
9.577,63.8
9.578,64.0
9.579,63.8
9.58,63.8
9.581,64.0
9.582,63.8
9.583,63.8
9.584,63.8
9.585,64.0
9.586,63.8
9.587,64.0
9.588000000000001,64.0
9.589,63.8
9.59,63.8
9.591000000000001,63.8
9.592,64.0
9.593,63.8
9.594,63.8
9.595,64.2
9.596,63.8
9.597,63.8
9.598,64.0
9.599,63.8
9.6,64.0
9.601,63.8
9.602,64.0
9.603,63.8
9.604000000000001,63.6
9.605,63.6
9.606,64.0
9.607,63.6
9.608,63.8
9.609,63.8
9.61,64.0
9.611,63.8
9.612,63.8
9.613,63.8
9.614,64.0
9.615,63.8
9.616,63.8
9.617,63.8
9.618,63.8
9.619,63.6
9.620000000000001,64.0
9.621,63.8
9.622,63.6
9.623,64.0
9.624,63.8
9.625,63.8
9.626,63.8
9.627,63.6
9.628,63.8
9.629,63.6
9.63,63.8
9.631,63.8
9.632,63.8
9.633000000000001,64.2
9.634,63.8
9.635,63.8
9.636000000000001,63.8
9.637,64.0
9.638,64.0
9.639,63.8
9.64,63.8
9.641,63.8
9.642,63.8
9.643,63.8
9.644,64.2
9.645,63.8
9.646,64.2
9.647,63.6
9.648,63.8
9.649000000000001,64.0
9.65,64.0
9.651,64.0
9.652000000000001,64.0
9.653,63.8
9.654,64.0
9.655,64.0
9.656,63.8
9.657,64.0
9.658,64.0
9.659,64.0
9.66,64.0
9.661,64.0
9.662,64.0
9.663,64.0
9.664,64.0
9.665000000000001,64.2
9.666,64.2
9.667,64.2
9.668000000000001,64.2
9.669,63.8
9.67,64.2
9.671,64.0
9.672,64.2
9.673,64.2
9.674,64.2
9.675,64.0
9.676,64.0
9.677,64.2
9.678,64.0
9.679,64.0
9.68,64.2
9.681000000000001,64.2
9.682,64.2
9.683,64.2
9.684000000000001,64.2
9.685,64.0
9.686,64.4
9.687,64.2
9.688,64.0
9.689,64.0
9.69,64.2
9.691,64.4
9.692,64.0
9.693,64.2
9.694,64.2
9.695,64.2
9.696,64.4
9.697000000000001,64.4
9.698,64.4
9.699,64.4
9.700000000000001,64.4
9.701,64.4
9.702,64.4
9.703,64.2
9.704,64.4
9.705,64.4
9.706,64.2
9.707,64.4
9.708,64.2
9.709,64.6
9.71,64.8
9.711,64.4
9.712,64.6
9.713000000000001,64.6
9.714,64.4
9.715,64.4
9.716000000000001,64.4
9.717,64.2
9.718,64.4
9.719,64.6
9.72,64.8
9.721,64.6
9.722,64.6
9.723,64.6
9.724,64.6
9.725,64.8
9.726,64.4
9.727,64.6
9.728,64.4
9.729000000000001,64.4
9.73,64.6
9.731,64.8
9.732,64.6
9.733,64.6
9.734,64.8
9.735,64.8
9.736,64.8
9.737,64.8
9.738,64.6
9.739,64.6
9.74,64.8
9.741,64.8
9.742,64.8
9.743,65.0
9.744,65.2
9.745000000000001,65.0
9.746,64.6
9.747,64.8
9.748,64.8
9.749,64.8
9.75,65.0
9.751,64.8
9.752,65.0
9.753,64.8
9.754,64.8
9.755,65.0
9.756,65.0
9.757,65.0
9.758000000000001,65.2
9.759,65.2
9.76,65.0
9.761000000000001,65.0
9.762,65.2
9.763,65.2
9.764,65.2
9.765,65.2
9.766,65.2
9.767,65.2
9.768,65.0
9.769,65.4
9.77,65.2
9.771,65.4
9.772,65.4
9.773,65.2
9.774000000000001,65.2
9.775,65.2
9.776,65.4
9.777000000000001,65.2
9.778,65.2
9.779,65.4
9.78,65.2
9.781,65.2
9.782,65.6
9.783,65.4
9.784,65.6
9.785,65.6
9.786,65.6
9.787,65.6
9.788,65.6
9.789,65.6
9.790000000000001,65.6
9.791,65.6
9.792,65.8
9.793000000000001,65.8
9.794,65.6
9.795,65.8
9.796,65.8
9.797,65.8
9.798,65.8
9.799,65.8
9.8,65.8
9.801,65.8
9.802,65.8
9.803,66.0
9.804,66.0
9.805,66.0
9.806000000000001,65.8
9.807,66.2
9.808,66.0
9.809000000000001,66.2
9.81,66.0
9.811,66.2
9.812,66.0
9.813,66.2
9.814,66.2
9.815,66.2
9.816,66.2
9.817,66.0
9.818,66.2
9.819,66.4
9.82,66.2
9.821,66.4
9.822000000000001,66.4
9.823,66.4
9.824,66.4
9.825000000000001,66.2
9.826,66.2
9.827,66.4
9.828,66.6
9.829,66.4
9.83,66.4
9.831,66.4
9.832,66.6
9.833,66.6
9.834,66.6
9.835,66.6
9.836,66.8
9.837,66.6
9.838000000000001,66.8
9.839,66.8
9.84,66.8
9.841000000000001,66.8
9.842,66.8
9.843,66.8
9.844,67.0
9.845,66.8
9.846,67.0
9.847,66.8
9.848,66.8
9.849,67.0
9.85,67.2
9.851,67.0
9.852,67.2
9.853,67.4
9.854000000000001,67.2
9.855,67.2
9.856,67.4
9.857,67.2
9.858,67.4
9.859,67.4
9.86,67.4
9.861,67.2
9.862,67.4
9.863,67.6
9.864,67.4
9.865,67.2
9.866,67.8
9.867,67.6
9.868,67.6
9.869,67.6
9.870000000000001,67.6
9.871,67.6
9.872,67.6
9.873,67.6
9.874,67.8
9.875,67.8
9.876,67.8
9.877,67.8
9.878,67.8
9.879,67.8
9.88,67.8
9.881,67.8
9.882,68.0
9.883000000000001,67.8
9.884,68.2
9.885,68.2
9.886000000000001,68.0
9.887,68.2
9.888,68.2
9.889,68.2
9.89,68.2
9.891,68.2
9.892,68.2
9.893,68.2
9.894,68.4
9.895,68.2
9.896,68.2
9.897,68.4
9.898,68.6
9.899000000000001,68.4
9.9,68.6
9.901,68.4
9.902000000000001,68.6
9.903,68.4
9.904,68.6
9.905,68.4
9.906,68.8
9.907,68.6
9.908,68.6
9.909,68.6
9.91,68.8
9.911,68.8
9.912,69.0
9.913,68.8
9.914,68.8
9.915000000000001,68.8
9.916,68.8
9.917,69.2
9.918000000000001,69.0
9.919,68.8
9.92,69.0
9.921,69.2
9.922,69.2
9.923,69.2
9.924,69.0
9.925,69.2
9.926,69.0
9.927,69.2
9.928,69.2
9.929,69.2
9.93,69.2
9.931000000000001,69.4
9.932,69.6
9.933,69.6
9.934000000000001,69.4
9.935,69.4
9.936,69.4
9.937,69.6
9.938,69.4
9.939,69.6
9.94,69.6
9.941,69.8
9.942,69.8
9.943,70.0
9.944,69.8
9.945,69.6
9.946,69.8
9.947000000000001,70.0
9.948,69.8
9.949,70.0
9.950000000000001,69.8
9.951,69.8
9.952,70.0
9.953,70.0
9.954,69.8
9.955,69.8
9.956,70.2
9.957,70.0
9.958,70.2
9.959,70.2
9.96,70.0
9.961,70.0
9.962,70.4
9.963000000000001,70.4
9.964,70.4
9.965,70.4
9.966000000000001,70.2
9.967,70.4
9.968,70.2
9.969,70.4
9.97,70.6
9.971,70.4
9.972,70.4
9.973,70.6
9.974,70.6
9.975,70.4
9.976,70.4
9.977,70.6
9.978,70.6
9.979000000000001,70.4
9.98,70.8
9.981,70.8
9.982000000000001,70.6
9.983,70.8
9.984,70.8
9.985,70.6
9.986,70.6
9.987,70.6
9.988,71.0
9.989,71.0
9.99,71.0
9.991,71.0
9.992,71.0
9.993,71.0
9.994,71.2
9.995000000000001,71.0
9.996,71.0
9.997,71.0
9.998,71.2
9.999,71.2
