####### Preamble ##########################
#	byt_nr=1
#	bit_nr=8
#	encdg=BIN
#	bn_fmt=RI
#	byt_or=MSB
#	nr_pt=10000
#	wfid="Ch1, DC coupling, 5.0E0 V/div, 1.0E0 s/div, 10000 points, Sample mode"
#	pt_fmt=Y
#	xincr=1.0E-3
#	pt_off=0
#	xzero=-5.0E0
#	xunit="s"
#	ymult=2.0E-1
#	yzero=0.0E0
#	yoff=5.7E1
#	yunit="V"
#######  Cursor ##########################
#VBA;IND;"s";-3.68E0;-4.02E0;2.0E0;3.4E-1;CURSOR1;-5.0E0;-3.0E0;8.8E0;-8.0E0;1.68E1;CURSOR1;"V";CURSOR1;CURSOR1X;-3.24E1;-2.08E1;9.6E0;4.32E1;RECT;0.0E0;0.0E0;0.0E0;0.0E0;0.0E0;0.0E0;9.9E37;9.9E37;9.9E37;9.9E37;9.9E37;9.9E37;9.9E37;9.9E37;9.9E37;9.9E37;9.9E37;9.9E37
#######  Data ##########################
#RIB;REF1;CH1;1;10000;1
# Delete the above lines to open in excel ######

Time [s],volts [V]
0.0,64.0
0.001,67.6
0.002,66.8
0.003,66.6
0.004,66.6
0.005,66.6
0.006,66.6
0.007,65.4
0.008,65.2
0.009000000000000001,65.2
0.01,65.0
0.011,65.2
0.012,65.0
0.013000000000000001,65.0
0.014,65.0
0.015,65.0
0.016,65.0
0.017,65.0
0.018000000000000002,64.6
0.019,64.8
0.02,64.8
0.021,65.0
0.022,64.8
0.023,64.8
0.024,64.8
0.025,64.6
0.026000000000000002,64.8
0.027,64.8
0.028,64.6
0.029,64.6
0.03,64.8
0.031,64.6
0.032,64.6
0.033,64.4
0.034,64.6
0.035,64.8
0.036000000000000004,64.6
0.037,64.6
0.038,64.6
0.039,64.6
0.04,64.4
0.041,64.6
0.042,64.6
0.043000000000000003,64.6
0.044,64.6
0.045,64.6
0.046,64.4
0.047,64.4
0.048,64.6
0.049,64.4
0.05,64.2
0.051000000000000004,64.4
0.052000000000000005,64.2
0.053,64.4
0.054,64.6
0.055,64.4
0.056,64.4
0.057,64.2
0.058,64.6
0.059000000000000004,64.2
0.06,64.2
0.061,64.2
0.062,64.4
0.063,64.2
0.064,64.4
0.065,64.4
0.066,64.4
0.067,64.2
0.068,64.2
0.069,64.2
0.07,64.6
0.07100000000000001,64.2
0.07200000000000001,64.4
0.073,64.2
0.074,64.0
0.075,64.0
0.076,64.0
0.077,64.2
0.078,64.2
0.079,64.2
0.08,64.2
0.081,64.2
0.082,63.8
0.083,64.2
0.084,64.2
0.085,64.2
0.08600000000000001,64.2
0.08700000000000001,64.0
0.088,64.0
0.089,64.0
0.09,64.0
0.091,64.2
0.092,64.0
0.093,64.0
0.094,64.2
0.095,64.2
0.096,64.2
0.097,63.8
0.098,64.0
0.099,64.0
0.1,64.0
0.101,64.0
0.10200000000000001,64.2
0.10300000000000001,64.2
0.10400000000000001,63.8
0.105,64.2
0.106,63.8
0.107,64.0
0.108,64.0
0.109,64.0
0.11,64.0
0.111,63.8
0.112,64.0
0.113,63.8
0.114,64.0
0.115,63.8
0.116,64.0
0.117,63.8
0.11800000000000001,63.6
0.11900000000000001,64.0
0.12,64.0
0.121,64.2
0.122,63.8
0.123,63.8
0.124,64.0
0.125,63.8
0.126,64.0
0.127,64.0
0.128,63.8
0.129,63.8
0.13,63.8
0.131,63.8
0.132,63.8
0.133,64.0
0.134,63.8
0.135,64.0
0.136,64.0
0.137,63.8
0.138,64.0
0.139,63.6
0.14,63.8
0.14100000000000001,63.6
0.14200000000000002,63.8
0.14300000000000002,63.8
0.14400000000000002,64.0
0.145,63.8
0.146,64.0
0.147,63.8
0.148,63.8
0.149,63.8
0.15,63.8
0.151,63.6
0.152,63.6
0.153,63.8
0.154,63.8
0.155,63.8
0.156,63.8
0.157,63.8
0.158,63.6
0.159,63.8
0.16,63.8
0.161,63.8
0.162,63.6
0.163,63.8
0.164,63.8
0.165,63.8
0.166,64.0
0.167,64.0
0.168,63.8
0.169,63.8
0.17,63.8
0.171,64.0
0.17200000000000001,64.0
0.17300000000000001,63.8
0.17400000000000002,63.8
0.17500000000000002,63.8
0.176,63.8
0.177,63.8
0.178,64.0
0.179,63.8
0.18,64.0
0.181,63.8
0.182,64.2
0.183,64.2
0.184,64.2
0.185,63.8
0.186,64.0
0.187,63.8
0.188,63.8
0.189,64.2
0.19,64.2
0.191,64.0
0.192,64.0
0.193,64.2
0.194,64.2
0.195,64.0
0.196,63.8
0.197,64.0
0.198,63.8
0.199,64.0
0.2,64.0
0.201,64.2
0.202,64.0
0.203,64.0
0.20400000000000001,64.0
0.20500000000000002,64.2
0.20600000000000002,64.0
0.20700000000000002,64.2
0.20800000000000002,64.0
0.209,64.2
0.21,64.0
0.211,64.0
0.212,64.0
0.213,64.2
0.214,64.2
0.215,64.2
0.216,64.0
0.217,64.0
0.218,64.0
0.219,64.2
0.22,64.2
0.221,64.4
0.222,64.0
0.223,64.0
0.224,64.2
0.225,64.4
0.226,64.2
0.227,64.0
0.228,64.4
0.229,64.2
0.23,64.0
0.231,64.0
0.232,64.2
0.233,64.4
0.234,64.4
0.23500000000000001,64.4
0.23600000000000002,64.2
0.23700000000000002,64.2
0.23800000000000002,64.2
0.23900000000000002,64.4
0.24,64.2
0.241,64.6
0.242,64.4
0.243,64.4
0.244,64.2
0.245,64.4
0.246,64.4
0.247,64.2
0.248,64.2
0.249,64.6
0.25,64.4
0.251,64.2
0.252,64.6
0.253,64.6
0.254,64.2
0.255,64.6
0.256,64.6
0.257,64.4
0.258,64.4
0.259,64.4
0.26,64.6
0.261,64.4
0.262,64.6
0.263,64.6
0.264,64.6
0.265,64.8
0.266,64.8
0.267,64.6
0.268,64.6
0.269,64.6
0.27,64.8
0.271,64.8
0.272,64.6
0.273,64.8
0.274,64.6
0.275,64.8
0.276,64.8
0.277,64.8
0.278,64.8
0.279,65.0
0.28,64.8
0.281,64.8
0.28200000000000003,65.2
0.28300000000000003,64.8
0.28400000000000003,65.0
0.28500000000000003,64.8
0.28600000000000003,64.8
0.28700000000000003,64.8
0.28800000000000003,65.0
0.289,65.2
0.29,64.6
0.291,65.0
0.292,65.0
0.293,65.0
0.294,65.0
0.295,65.0
0.296,64.8
0.297,65.0
0.298,65.0
0.299,65.2
0.3,65.4
0.301,65.2
0.302,65.2
0.303,65.2
0.304,65.4
0.305,65.2
0.306,65.2
0.307,65.2
0.308,65.2
0.309,65.2
0.31,65.2
0.311,65.2
0.312,65.4
0.313,65.4
0.314,65.2
0.315,65.6
0.316,65.4
0.317,65.4
0.318,65.4
0.319,65.6
0.32,65.6
0.321,65.4
0.322,65.6
0.323,65.6
0.324,65.6
0.325,65.4
0.326,65.6
0.327,65.6
0.328,65.6
0.329,65.6
0.33,65.4
0.331,65.8
0.332,65.8
0.333,65.8
0.334,65.8
0.335,65.8
0.336,65.8
0.337,66.0
0.338,66.0
0.339,65.8
0.34,66.0
0.341,66.0
0.342,66.0
0.343,65.8
0.34400000000000003,65.8
0.34500000000000003,66.0
0.34600000000000003,66.0
0.34700000000000003,66.0
0.34800000000000003,66.0
0.34900000000000003,66.0
0.35000000000000003,66.2
0.35100000000000003,66.4
0.352,66.4
0.353,66.2
0.354,66.4
0.355,66.4
0.356,66.2
0.357,66.2
0.358,66.4
0.359,66.4
0.36,66.4
0.361,66.4
0.362,66.4
0.363,66.6
0.364,66.4
0.365,66.6
0.366,66.6
0.367,66.6
0.368,66.6
0.369,66.6
0.37,66.6
0.371,66.8
0.372,66.6
0.373,66.6
0.374,66.8
0.375,66.8
0.376,67.0
0.377,67.0
0.378,66.8
0.379,66.8
0.38,67.0
0.381,67.0
0.382,67.0
0.383,67.0
0.384,67.2
0.385,67.2
0.386,67.0
0.387,67.0
0.388,67.2
0.389,67.2
0.39,67.2
0.391,67.2
0.392,67.4
0.393,67.2
0.394,67.2
0.395,67.2
0.396,67.4
0.397,67.2
0.398,67.4
0.399,67.4
0.4,67.4
0.401,67.6
0.402,67.6
0.403,67.4
0.404,67.6
0.405,67.4
0.406,67.6
0.40700000000000003,67.6
0.40800000000000003,67.8
0.40900000000000003,67.8
0.41000000000000003,67.8
0.41100000000000003,67.8
0.41200000000000003,67.8
0.41300000000000003,67.8
0.41400000000000003,67.6
0.41500000000000004,67.8
0.41600000000000004,68.0
0.417,68.0
0.418,68.2
0.419,68.0
0.42,68.0
0.421,68.0
0.422,68.0
0.423,68.2
0.424,68.0
0.425,68.2
0.426,68.0
0.427,68.2
0.428,68.2
0.429,68.2
0.43,68.4
0.431,68.2
0.432,68.4
0.433,68.4
0.434,68.4
0.435,68.4
0.436,68.4
0.437,68.4
0.438,68.6
0.439,68.4
0.44,68.6
0.441,68.8
0.442,68.4
0.443,68.6
0.444,68.6
0.445,68.6
0.446,68.8
0.447,68.8
0.448,68.8
0.449,68.8
0.45,68.8
0.451,68.8
0.452,68.8
0.453,69.0
0.454,68.8
0.455,69.0
0.456,68.8
0.457,69.0
0.458,69.0
0.459,69.2
0.46,69.2
0.461,69.2
0.462,69.2
0.463,69.2
0.464,69.2
0.465,69.4
0.466,69.2
0.467,69.6
0.468,69.2
0.46900000000000003,69.8
0.47000000000000003,69.4
0.47100000000000003,69.6
0.47200000000000003,69.4
0.47300000000000003,69.6
0.47400000000000003,69.6
0.47500000000000003,69.6
0.47600000000000003,69.8
0.47700000000000004,69.8
0.47800000000000004,69.8
0.47900000000000004,69.6
0.48,69.8
0.481,69.8
0.482,69.8
0.483,69.8
0.484,69.6
0.485,69.8
0.486,69.8
0.487,70.0
0.488,70.2
0.489,70.0
0.49,70.0
0.491,70.0
0.492,70.4
0.493,70.2
0.494,70.2
0.495,70.2
0.496,69.8
0.497,70.4
0.498,70.4
0.499,70.4
0.5,70.2
0.501,70.4
0.502,70.4
0.503,70.6
0.504,70.4
0.505,70.2
0.506,70.4
0.507,70.4
0.508,70.4
0.509,70.6
0.51,70.6
0.511,70.4
0.512,70.6
0.513,70.4
0.514,70.8
0.515,70.6
0.516,70.6
0.517,70.8
0.518,70.6
0.519,70.8
0.52,70.6
0.521,70.8
0.522,70.8
0.523,70.8
0.524,70.8
0.525,71.0
0.526,70.8
0.527,70.8
0.528,71.0
0.529,71.0
0.53,70.8
0.531,70.8
0.532,71.0
0.533,71.0
0.534,71.0
0.535,70.8
0.536,71.2
0.537,71.0
0.538,71.2
0.539,71.4
0.54,71.4
0.541,71.0
0.542,71.0
0.543,71.2
0.544,71.2
0.545,71.2
0.546,71.2
0.547,71.2
0.548,71.4
0.549,71.6
0.55,71.4
0.551,71.2
0.552,71.6
0.553,71.4
0.554,71.2
0.555,71.2
0.556,71.4
0.557,71.6
0.558,71.4
0.559,71.6
0.56,71.6
0.561,71.4
0.562,71.4
0.5630000000000001,71.6
0.5640000000000001,71.4
0.5650000000000001,71.8
0.5660000000000001,71.8
0.5670000000000001,71.8
0.5680000000000001,72.0
0.5690000000000001,71.8
0.5700000000000001,72.0
0.5710000000000001,71.6
0.5720000000000001,71.6
0.5730000000000001,71.8
0.5740000000000001,72.0
0.5750000000000001,72.0
0.5760000000000001,72.0
0.577,71.8
0.578,72.0
0.579,72.0
0.58,72.0
0.581,72.0
0.582,72.0
0.583,72.0
0.584,72.0
0.585,72.2
0.586,72.2
0.587,72.0
0.588,72.0
0.589,72.2
0.59,72.0
0.591,72.2
0.592,72.0
0.593,72.0
0.594,72.2
0.595,72.2
0.596,72.2
0.597,72.2
0.598,72.2
0.599,72.0
0.6,72.4
0.601,72.4
0.602,72.4
0.603,72.4
0.604,72.2
0.605,72.4
0.606,72.4
0.607,72.2
0.608,72.2
0.609,72.4
0.61,72.6
0.611,72.4
0.612,72.4
0.613,72.4
0.614,72.4
0.615,72.6
0.616,72.6
0.617,72.4
0.618,72.4
0.619,72.4
0.62,72.4
0.621,72.6
0.622,72.4
0.623,72.4
0.624,72.6
0.625,72.4
0.626,72.6
0.627,72.4
0.628,72.8
0.629,72.8
0.63,72.8
0.631,72.6
0.632,72.6
0.633,72.8
0.634,72.4
0.635,72.8
0.636,72.6
0.637,72.8
0.638,72.8
0.639,72.6
0.64,72.6
0.641,72.8
0.642,72.8
0.643,72.8
0.644,72.6
0.645,72.8
0.646,72.8
0.647,73.0
0.648,72.6
0.649,72.8
0.65,72.6
0.651,73.0
0.652,72.8
0.653,72.8
0.654,72.8
0.655,72.8
0.656,73.0
0.657,72.8
0.658,72.8
0.659,72.8
0.66,72.8
0.661,72.8
0.662,72.8
0.663,73.0
0.664,73.0
0.665,73.0
0.666,73.0
0.667,73.0
0.668,72.8
0.669,72.8
0.67,73.0
0.671,73.0
0.672,73.0
0.673,73.0
0.674,73.0
0.675,73.0
0.676,72.8
0.677,73.2
0.678,73.0
0.679,73.0
0.68,73.0
0.681,73.0
0.682,72.8
0.683,72.8
0.684,73.0
0.685,73.2
0.686,72.8
0.687,73.0
0.6880000000000001,73.0
0.6890000000000001,73.0
0.6900000000000001,73.0
0.6910000000000001,72.8
0.6920000000000001,72.8
0.6930000000000001,73.0
0.6940000000000001,73.0
0.6950000000000001,73.0
0.6960000000000001,73.2
0.6970000000000001,73.0
0.6980000000000001,72.8
0.6990000000000001,73.0
0.7000000000000001,73.2
0.7010000000000001,73.0
0.7020000000000001,73.2
0.7030000000000001,72.8
0.704,73.0
0.705,72.8
0.706,72.8
0.707,72.8
0.708,73.0
0.709,72.8
0.71,73.0
0.711,72.6
0.712,72.8
0.713,73.0
0.714,73.0
0.715,72.8
0.716,72.8
0.717,72.8
0.718,72.8
0.719,73.0
0.72,73.0
0.721,73.0
0.722,72.8
0.723,73.0
0.724,72.8
0.725,72.8
0.726,72.6
0.727,72.8
0.728,73.0
0.729,73.0
0.73,72.8
0.731,72.8
0.732,73.0
0.733,72.8
0.734,72.8
0.735,72.8
0.736,72.8
0.737,72.8
0.738,72.8
0.739,72.6
0.74,72.6
0.741,72.8
0.742,72.8
0.743,72.6
0.744,72.8
0.745,72.6
0.746,72.6
0.747,72.8
0.748,72.6
0.749,72.6
0.75,72.6
0.751,72.6
0.752,72.6
0.753,72.6
0.754,72.4
0.755,72.6
0.756,72.8
0.757,72.4
0.758,72.6
0.759,72.6
0.76,72.6
0.761,72.4
0.762,72.4
0.763,72.4
0.764,72.4
0.765,72.4
0.766,72.4
0.767,72.2
0.768,72.6
0.769,72.2
0.77,72.4
0.771,72.4
0.772,72.4
0.773,72.4
0.774,72.4
0.775,72.2
0.776,72.4
0.777,72.4
0.778,72.4
0.779,72.4
0.78,72.2
0.781,72.2
0.782,72.0
0.783,72.2
0.784,72.2
0.785,72.0
0.786,72.0
0.787,72.0
0.788,72.2
0.789,72.2
0.79,72.0
0.791,72.0
0.792,71.8
0.793,72.0
0.794,72.0
0.795,72.0
0.796,72.2
0.797,72.2
0.798,72.0
0.799,72.0
0.8,72.0
0.801,72.0
0.802,71.8
0.803,72.0
0.804,71.8
0.805,71.8
0.806,71.8
0.807,72.0
0.808,72.0
0.809,72.0
0.81,71.8
0.811,71.8
0.812,71.6
0.8130000000000001,72.0
0.8140000000000001,72.0
0.8150000000000001,72.0
0.8160000000000001,71.4
0.8170000000000001,71.4
0.8180000000000001,71.6
0.8190000000000001,71.6
0.8200000000000001,71.6
0.8210000000000001,71.4
0.8220000000000001,71.6
0.8230000000000001,71.4
0.8240000000000001,71.4
0.8250000000000001,71.4
0.8260000000000001,71.6
0.8270000000000001,71.4
0.8280000000000001,71.4
0.8290000000000001,71.6
0.8300000000000001,71.2
0.8310000000000001,71.4
0.8320000000000001,71.2
0.833,71.4
0.834,71.0
0.835,71.2
0.836,71.4
0.837,71.4
0.838,71.2
0.839,71.0
0.84,71.2
0.841,71.2
0.842,70.8
0.843,71.0
0.844,70.8
0.845,71.2
0.846,71.0
0.847,71.0
0.848,71.0
0.849,71.0
0.85,71.0
0.851,70.8
0.852,70.8
0.853,71.0
0.854,70.8
0.855,71.0
0.856,70.8
0.857,70.8
0.858,70.6
0.859,70.8
0.86,71.0
0.861,70.4
0.862,70.6
0.863,70.6
0.864,70.6
0.865,70.6
0.866,70.2
0.867,70.6
0.868,70.4
0.869,70.6
0.87,70.4
0.871,70.6
0.872,70.6
0.873,70.4
0.874,70.2
0.875,70.4
0.876,70.4
0.877,70.4
0.878,70.2
0.879,70.2
0.88,70.2
0.881,70.2
0.882,70.4
0.883,70.4
0.884,70.0
0.885,70.2
0.886,70.2
0.887,70.0
0.888,70.2
0.889,69.8
0.89,69.8
0.891,69.8
0.892,69.6
0.893,69.8
0.894,70.0
0.895,69.8
0.896,69.6
0.897,69.8
0.898,70.0
0.899,69.8
0.9,69.6
0.901,69.6
0.902,69.8
0.903,69.6
0.904,69.4
0.905,69.4
0.906,69.6
0.907,69.4
0.908,69.4
0.909,69.2
0.91,69.2
0.911,69.4
0.912,69.2
0.913,69.4
0.914,69.2
0.915,69.2
0.916,69.0
0.917,69.0
0.918,69.0
0.919,69.2
0.92,69.0
0.921,69.0
0.922,69.0
0.923,68.8
0.924,68.8
0.925,69.0
0.926,69.2
0.927,69.0
0.928,68.8
0.929,68.8
0.93,68.8
0.931,68.8
0.932,68.8
0.933,68.6
0.934,68.6
0.935,68.6
0.936,68.4
0.937,68.6
0.9380000000000001,68.4
0.9390000000000001,68.6
0.9400000000000001,68.4
0.9410000000000001,68.2
0.9420000000000001,68.4
0.9430000000000001,68.4
0.9440000000000001,68.4
0.9450000000000001,68.2
0.9460000000000001,68.4
0.9470000000000001,68.0
0.9480000000000001,68.2
0.9490000000000001,68.0
0.9500000000000001,68.0
0.9510000000000001,68.0
0.9520000000000001,68.0
0.9530000000000001,68.0
0.9540000000000001,68.0
0.9550000000000001,68.0
0.9560000000000001,68.0
0.9570000000000001,67.8
0.9580000000000001,68.0
0.9590000000000001,68.0
0.96,67.8
0.961,67.8
0.962,67.6
0.963,67.8
0.964,67.6
0.965,67.6
0.966,67.6
0.967,67.4
0.968,67.6
0.969,67.4
0.97,67.4
0.971,67.6
0.972,67.2
0.973,67.4
0.974,67.4
0.975,67.4
0.976,67.2
0.977,67.2
0.978,67.2
0.979,67.0
0.98,67.2
0.981,67.2
0.982,67.2
0.983,67.0
0.984,67.0
0.985,67.2
0.986,67.0
0.987,67.0
0.988,66.8
0.989,67.0
0.99,66.6
0.991,66.8
0.992,66.8
0.993,66.8
0.994,66.6
0.995,66.6
0.996,66.6
0.997,66.6
0.998,66.6
0.999,66.6
1.0,66.4
1.0010000000000001,66.4
1.002,66.4
1.0030000000000001,66.4
1.004,66.4
1.0050000000000001,66.4
1.006,66.4
1.0070000000000001,66.4
1.008,66.0
1.0090000000000001,66.0
1.01,66.0
1.0110000000000001,66.4
1.012,66.2
1.0130000000000001,66.2
1.014,66.0
1.0150000000000001,65.8
1.016,66.0
1.0170000000000001,66.0
1.018,66.0
1.0190000000000001,65.8
1.02,65.8
1.0210000000000001,65.6
1.022,65.8
1.0230000000000001,65.6
1.024,65.8
1.025,65.8
1.026,65.8
1.027,65.8
1.028,65.8
1.029,65.8
1.03,65.6
1.031,65.6
1.032,65.4
1.033,65.4
1.034,65.4
1.035,65.4
1.036,65.4
1.037,65.4
1.038,65.6
1.039,65.2
1.04,65.2
1.041,65.4
1.042,65.0
1.043,65.2
1.044,65.2
1.045,65.4
1.046,65.0
1.047,65.0
1.048,65.2
1.049,64.8
1.05,65.0
1.051,64.8
1.052,65.0
1.053,64.8
1.054,64.8
1.055,65.0
1.056,64.8
1.057,64.8
1.058,65.0
1.059,64.6
1.06,64.8
1.061,64.8
1.062,64.8
1.063,64.8
1.064,64.6
1.065,64.8
1.066,64.6
1.067,64.8
1.068,64.6
1.069,64.6
1.07,64.6
1.071,64.6
1.072,64.6
1.073,64.6
1.074,64.4
1.075,64.6
1.076,64.4
1.077,64.2
1.078,64.2
1.079,64.2
1.08,64.4
1.081,64.4
1.082,64.2
1.083,64.2
1.084,64.4
1.085,64.2
1.086,64.4
1.087,64.2
1.088,64.4
1.089,64.0
1.09,64.2
1.091,64.4
1.092,64.4
1.093,64.2
1.094,64.2
1.095,64.2
1.096,64.2
1.097,64.2
1.098,64.2
1.099,64.0
1.1,64.2
1.101,64.2
1.102,64.0
1.103,64.0
1.104,64.2
1.105,64.2
1.106,64.2
1.107,64.0
1.108,64.0
1.109,64.0
1.11,64.2
1.111,64.2
1.112,64.2
1.113,63.8
1.114,64.0
1.115,64.0
1.116,64.0
1.117,64.0
1.118,63.8
1.119,64.2
1.12,63.8
1.121,63.8
1.122,64.0
1.123,64.0
1.124,63.8
1.125,63.8
1.1260000000000001,63.8
1.127,64.2
1.1280000000000001,64.2
1.129,63.8
1.1300000000000001,63.8
1.131,63.8
1.1320000000000001,63.8
1.133,63.8
1.1340000000000001,63.8
1.135,63.6
1.1360000000000001,63.8
1.137,64.2
1.1380000000000001,64.0
1.139,63.8
1.1400000000000001,63.8
1.141,63.6
1.1420000000000001,63.8
1.143,63.8
1.1440000000000001,63.8
1.145,63.8
1.1460000000000001,63.8
1.147,63.8
1.1480000000000001,63.8
1.149,63.6
1.1500000000000001,63.8
1.151,63.8
1.1520000000000001,63.8
1.153,63.6
1.154,63.8
1.155,63.8
1.156,63.8
1.157,64.0
1.158,63.8
1.159,64.0
1.16,63.8
1.161,63.8
1.162,63.8
1.163,63.6
1.164,64.0
1.165,63.8
1.166,64.2
1.167,64.0
1.168,64.0
1.169,63.8
1.17,64.0
1.171,63.8
1.172,64.0
1.173,64.0
1.174,64.2
1.175,63.8
1.176,64.0
1.177,64.0
1.178,63.8
1.179,64.0
1.18,64.2
1.181,63.8
1.182,64.0
1.183,64.2
1.184,64.0
1.185,63.8
1.186,63.6
1.187,64.0
1.188,64.0
1.189,64.0
1.19,64.2
1.191,64.0
1.192,64.2
1.193,64.0
1.194,64.0
1.195,64.2
1.196,64.2
1.197,64.2
1.198,64.0
1.199,64.2
1.2,64.0
1.201,64.0
1.202,64.0
1.203,64.4
1.204,64.2
1.205,64.2
1.206,64.0
1.207,64.0
1.208,64.2
1.209,64.4
1.21,64.2
1.211,64.4
1.212,64.2
1.213,64.2
1.214,64.4
1.215,64.2
1.216,64.2
1.217,64.0
1.218,64.6
1.219,64.2
1.22,64.4
1.221,64.2
1.222,64.6
1.223,64.4
1.224,64.6
1.225,64.6
1.226,64.6
1.227,64.6
1.228,64.2
1.229,64.6
1.23,64.4
1.231,64.6
1.232,64.6
1.233,64.8
1.234,64.4
1.235,64.6
1.236,64.8
1.237,64.6
1.238,64.6
1.239,64.8
1.24,64.8
1.241,64.4
1.242,64.8
1.243,64.8
1.244,64.8
1.245,64.8
1.246,64.8
1.247,64.6
1.248,64.8
1.249,64.8
1.25,65.0
1.2510000000000001,64.8
1.252,65.0
1.2530000000000001,65.2
1.254,64.8
1.2550000000000001,64.8
1.256,65.2
1.2570000000000001,65.0
1.258,65.2
1.2590000000000001,65.2
1.26,65.2
1.2610000000000001,65.2
1.262,65.2
1.2630000000000001,65.4
1.264,65.2
1.2650000000000001,65.4
1.266,65.2
1.2670000000000001,65.4
1.268,65.4
1.2690000000000001,65.4
1.27,65.4
1.2710000000000001,65.6
1.272,65.4
1.2730000000000001,65.4
1.274,65.4
1.2750000000000001,65.4
1.276,65.6
1.2770000000000001,65.4
1.278,65.8
1.2790000000000001,65.8
1.28,65.6
1.281,65.6
1.282,65.8
1.283,65.8
1.284,65.8
1.285,65.6
1.286,65.8
1.287,65.8
1.288,65.8
1.289,66.0
1.29,66.0
1.291,66.0
1.292,66.0
1.293,66.0
1.294,66.2
1.295,66.2
1.296,66.2
1.297,66.0
1.298,66.2
1.299,66.2
1.3,66.4
1.301,66.4
1.302,66.4
1.303,66.4
1.304,66.4
1.305,66.2
1.306,66.4
1.307,66.2
1.308,66.4
1.309,66.6
1.31,66.4
1.311,66.4
1.312,66.6
1.313,66.6
1.314,66.6
1.315,66.8
1.316,66.8
1.317,66.8
1.318,66.6
1.319,66.8
1.32,67.0
1.321,67.0
1.322,67.0
1.323,67.0
1.324,67.2
1.325,67.2
1.326,67.4
1.327,67.2
1.328,67.2
1.329,67.2
1.33,67.2
1.331,67.2
1.332,67.4
1.333,67.4
1.334,67.4
1.335,67.6
1.336,67.4
1.337,67.4
1.338,67.8
1.339,67.6
1.34,67.6
1.341,67.6
1.342,67.8
1.343,67.8
1.344,68.0
1.345,67.8
1.346,67.8
1.347,67.8
1.348,68.0
1.349,68.0
1.35,68.0
1.351,68.0
1.352,68.2
1.353,68.2
1.354,68.2
1.355,68.2
1.356,68.2
1.357,68.2
1.358,68.4
1.359,68.4
1.36,68.4
1.361,68.4
1.362,68.6
1.363,68.8
1.364,68.6
1.365,68.8
1.366,68.6
1.367,68.6
1.368,68.8
1.369,68.8
1.37,68.8
1.371,68.8
1.372,68.8
1.373,69.0
1.374,68.8
1.375,69.0
1.3760000000000001,69.2
1.377,69.0
1.3780000000000001,69.2
1.379,69.0
1.3800000000000001,69.0
1.381,69.2
1.3820000000000001,69.4
1.383,69.4
1.3840000000000001,69.4
1.385,69.4
1.3860000000000001,69.4
1.387,69.4
1.3880000000000001,69.6
1.389,69.8
1.3900000000000001,69.8
1.391,69.8
1.3920000000000001,69.6
1.393,69.8
1.3940000000000001,69.8
1.395,69.8
1.3960000000000001,69.8
1.397,69.8
1.3980000000000001,70.0
1.399,69.8
1.4000000000000001,69.8
1.401,70.2
1.4020000000000001,70.2
1.403,70.4
1.4040000000000001,70.2
1.405,70.2
1.4060000000000001,70.0
1.407,70.4
1.408,70.4
1.409,70.4
1.41,70.4
1.411,70.4
1.412,70.2
1.413,70.6
1.414,70.4
1.415,70.4
1.416,70.6
1.417,70.6
1.418,70.6
1.419,70.6
1.42,70.8
1.421,70.8
1.422,70.8
1.423,70.8
1.424,71.0
1.425,70.8
1.426,70.8
1.427,71.0
1.428,71.0
1.429,71.0
1.43,71.2
1.431,71.2
1.432,70.8
1.433,71.2
1.434,71.2
1.435,71.2
1.436,71.2
1.437,71.4
1.438,71.0
1.439,71.2
1.44,71.2
1.441,71.4
1.442,71.4
1.443,71.4
1.444,71.4
1.445,71.4
1.446,71.4
1.447,71.6
1.448,71.6
1.449,71.4
1.45,71.6
1.451,71.8
1.452,71.6
1.453,71.6
1.454,71.8
1.455,71.8
1.456,71.6
1.457,72.0
1.458,72.0
1.459,71.8
1.46,71.8
1.461,71.6
1.462,71.8
1.463,72.0
1.464,72.0
1.465,72.0
1.466,72.0
1.467,72.0
1.468,72.0
1.469,72.2
1.47,72.0
1.471,72.0
1.472,72.2
1.473,72.0
1.474,72.0
1.475,72.2
1.476,72.4
1.477,72.4
1.478,72.0
1.479,72.2
1.48,72.4
1.481,72.2
1.482,72.4
1.483,72.2
1.484,72.2
1.485,72.4
1.486,72.4
1.487,72.4
1.488,72.6
1.489,72.4
1.49,72.6
1.491,72.6
1.492,72.6
1.493,72.4
1.494,72.6
1.495,72.4
1.496,72.8
1.497,72.4
1.498,72.8
1.499,72.4
1.5,72.8
1.5010000000000001,72.8
1.502,72.8
1.5030000000000001,72.6
1.504,72.6
1.5050000000000001,72.6
1.506,72.6
1.5070000000000001,72.8
1.508,72.8
1.5090000000000001,72.6
1.51,72.8
1.5110000000000001,72.8
1.512,73.0
1.5130000000000001,72.6
1.514,72.6
1.5150000000000001,72.8
1.516,73.0
1.5170000000000001,72.8
1.518,72.6
1.5190000000000001,72.8
1.52,73.0
1.5210000000000001,73.0
1.522,72.8
1.5230000000000001,72.8
1.524,73.0
1.5250000000000001,72.8
1.526,73.0
1.5270000000000001,72.8
1.528,72.8
1.5290000000000001,73.0
1.53,73.0
1.5310000000000001,72.8
1.532,72.8
1.5330000000000001,73.0
1.534,72.8
1.5350000000000001,72.8
1.536,72.8
1.537,72.8
1.538,72.8
1.539,72.8
1.54,72.8
1.541,72.6
1.542,72.8
1.543,72.8
1.544,72.8
1.545,72.8
1.546,72.8
1.547,73.0
1.548,72.8
1.549,72.8
1.55,73.0
1.551,72.8
1.552,72.8
1.553,73.0
1.554,72.8
1.555,72.8
1.556,72.8
1.557,72.8
1.558,72.8
1.559,72.6
1.56,73.0
1.561,72.8
1.562,72.8
1.563,72.6
1.564,72.8
1.565,72.8
1.566,72.8
1.567,72.6
1.568,72.6
1.569,72.8
1.57,72.8
1.571,72.6
1.572,72.6
1.573,72.4
1.574,72.4
1.575,72.8
1.576,72.6
1.577,72.4
1.578,72.6
1.579,72.6
1.58,72.4
1.581,72.6
1.582,72.4
1.583,72.4
1.584,72.4
1.585,72.4
1.586,72.6
1.587,72.4
1.588,72.4
1.589,72.2
1.59,72.4
1.591,72.4
1.592,72.4
1.593,72.4
1.594,72.2
1.595,72.4
1.596,72.2
1.597,72.2
1.598,72.2
1.599,72.2
1.6,72.2
1.601,72.2
1.602,71.8
1.603,72.0
1.604,72.2
1.605,72.2
1.606,72.0
1.607,72.2
1.608,71.8
1.609,72.0
1.61,71.8
1.611,72.0
1.612,71.8
1.613,71.8
1.614,72.0
1.615,71.8
1.616,71.8
1.617,71.8
1.618,72.0
1.619,71.8
1.62,71.8
1.621,71.6
1.622,71.6
1.623,71.6
1.624,71.4
1.625,71.6
1.6260000000000001,71.4
1.627,71.2
1.6280000000000001,71.6
1.629,71.4
1.6300000000000001,71.0
1.631,71.2
1.6320000000000001,71.4
1.633,71.2
1.6340000000000001,71.2
1.635,71.2
1.6360000000000001,71.2
1.637,71.2
1.6380000000000001,71.0
1.639,71.2
1.6400000000000001,71.0
1.641,71.0
1.6420000000000001,71.0
1.643,71.0
1.6440000000000001,71.0
1.645,70.8
1.6460000000000001,71.0
1.647,70.6
1.6480000000000001,71.0
1.649,71.0
1.6500000000000001,70.6
1.651,70.6
1.6520000000000001,70.6
1.653,70.6
1.6540000000000001,70.4
1.655,70.6
1.6560000000000001,70.4
1.657,70.4
1.6580000000000001,70.4
1.659,70.4
1.6600000000000001,70.2
1.661,70.4
1.6620000000000001,70.2
1.663,70.4
1.6640000000000001,70.4
1.665,70.4
1.666,70.2
1.667,70.2
1.668,70.2
1.669,70.2
1.67,70.0
1.671,70.0
1.672,69.8
1.673,69.6
1.674,70.0
1.675,69.8
1.676,69.6
1.677,69.8
1.678,69.6
1.679,69.8
1.68,69.6
1.681,69.4
1.682,69.4
1.683,69.2
1.684,69.2
1.685,69.2
1.686,69.2
1.687,69.2
1.688,69.2
1.689,69.0
1.69,69.2
1.691,69.0
1.692,68.8
1.693,69.0
1.694,68.8
1.695,68.8
1.696,68.8
1.697,68.8
1.698,68.8
1.699,68.8
1.7,68.6
1.701,68.6
1.702,68.4
1.703,68.4
1.704,68.4
1.705,68.6
1.706,68.4
1.707,68.2
1.708,68.2
1.709,68.2
1.71,68.0
1.711,68.2
1.712,67.8
1.713,68.0
1.714,67.8
1.715,67.8
1.716,68.0
1.717,68.0
1.718,67.8
1.719,67.8
1.72,67.6
1.721,67.6
1.722,67.8
1.723,67.6
1.724,67.4
1.725,67.6
1.726,67.6
1.727,67.4
1.728,67.4
1.729,67.4
1.73,67.2
1.731,67.4
1.732,67.2
1.733,67.2
1.734,67.0
1.735,67.2
1.736,67.0
1.737,67.0
1.738,67.0
1.739,66.8
1.74,67.0
1.741,66.8
1.742,66.6
1.743,66.8
1.744,66.8
1.745,66.6
1.746,66.6
1.747,66.6
1.748,66.6
1.749,66.4
1.75,66.4
1.7510000000000001,66.4
1.752,66.4
1.7530000000000001,66.4
1.754,66.4
1.7550000000000001,66.4
1.756,66.2
1.7570000000000001,65.8
1.758,66.0
1.7590000000000001,66.0
1.76,66.2
1.7610000000000001,66.0
1.762,66.0
1.7630000000000001,66.0
1.764,66.2
1.7650000000000001,65.6
1.766,65.8
1.7670000000000001,65.8
1.768,65.8
1.7690000000000001,65.8
1.77,65.6
1.7710000000000001,65.6
1.772,65.6
1.7730000000000001,65.8
1.774,65.8
1.7750000000000001,65.4
1.776,65.4
1.7770000000000001,65.6
1.778,65.2
1.7790000000000001,65.4
1.78,65.0
1.7810000000000001,65.2
1.782,65.0
1.7830000000000001,65.2
1.784,65.2
1.7850000000000001,65.2
1.786,65.2
1.7870000000000001,65.0
1.788,65.4
1.7890000000000001,65.2
1.79,65.0
1.7910000000000001,65.0
1.792,64.8
1.793,64.8
1.794,64.6
1.795,64.8
1.796,64.8
1.797,64.8
1.798,64.6
1.799,64.8
1.8,64.6
1.801,64.6
1.802,64.6
1.803,64.6
1.804,64.8
1.805,64.6
1.806,64.4
1.807,64.4
1.808,64.4
1.809,64.4
1.81,64.4
1.811,64.2
1.812,64.6
1.813,64.2
1.814,64.4
1.815,64.4
1.816,64.4
1.817,64.4
1.818,64.6
1.819,64.4
1.82,64.2
1.821,64.2
1.822,64.2
1.823,64.2
1.824,64.0
1.825,64.2
1.826,64.2
1.827,64.2
1.828,64.0
1.829,64.0
1.83,64.2
1.831,64.0
1.832,64.0
1.833,64.0
1.834,64.0
1.835,64.2
1.836,64.0
1.837,64.2
1.838,64.0
1.839,64.2
1.84,64.0
1.841,64.0
1.842,64.0
1.843,64.0
1.844,64.0
1.845,63.8
1.846,63.8
1.847,64.0
1.848,63.8
1.849,64.0
1.85,64.0
1.851,63.8
1.852,63.8
1.853,64.0
1.854,63.8
1.855,64.0
1.856,63.6
1.857,63.8
1.858,63.8
1.859,64.0
1.86,63.8
1.861,64.0
1.862,64.0
1.863,63.8
1.864,64.0
1.865,63.8
1.866,63.8
1.867,64.0
1.868,64.0
1.869,64.0
1.87,63.8
1.871,63.8
1.872,64.0
1.873,63.8
1.874,63.6
1.875,64.0
1.8760000000000001,63.8
1.877,64.0
1.8780000000000001,64.0
1.879,63.6
1.8800000000000001,63.8
1.881,63.8
1.8820000000000001,63.8
1.883,64.0
1.8840000000000001,64.0
1.885,64.0
1.8860000000000001,63.8
1.887,64.0
1.8880000000000001,64.0
1.889,64.2
1.8900000000000001,64.0
1.891,64.0
1.8920000000000001,64.2
1.893,63.8
1.8940000000000001,63.8
1.895,63.8
1.8960000000000001,64.2
1.897,64.2
1.8980000000000001,64.2
1.899,63.8
1.9000000000000001,64.0
1.901,64.0
1.9020000000000001,64.0
1.903,64.2
1.9040000000000001,64.2
1.905,64.0
1.9060000000000001,64.2
1.907,64.2
1.9080000000000001,64.4
1.909,63.8
1.9100000000000001,64.0
1.911,64.2
1.9120000000000001,64.2
1.913,64.0
1.9140000000000001,64.0
1.915,64.4
1.9160000000000001,64.2
1.917,64.4
1.9180000000000001,64.4
1.919,64.4
1.92,64.2
1.921,64.2
1.922,64.4
1.923,64.2
1.924,64.4
1.925,64.4
1.926,64.6
1.927,64.4
1.928,64.4
1.929,64.4
1.93,64.6
1.931,64.4
1.932,64.6
1.933,64.6
1.934,64.6
1.935,64.6
1.936,64.8
1.937,64.6
1.938,65.0
1.939,64.8
1.94,64.6
1.941,64.4
1.942,64.6
1.943,65.0
1.944,65.0
1.945,65.0
1.946,65.0
1.947,64.8
1.948,65.0
1.949,65.0
1.95,65.0
1.951,65.0
1.952,65.0
1.953,65.2
1.954,65.2
1.955,64.8
1.956,65.0
1.957,65.2
1.958,65.2
1.959,65.2
1.96,65.4
1.961,65.4
1.962,65.4
1.963,65.2
1.964,65.4
1.965,65.6
1.966,65.4
1.967,65.4
1.968,65.4
1.969,65.6
1.97,65.2
1.971,65.8
1.972,65.8
1.973,65.6
1.974,65.4
1.975,65.8
1.976,65.8
1.977,65.8
1.978,65.8
1.979,66.0
1.98,66.0
1.981,66.0
1.982,66.0
1.983,66.2
1.984,66.2
1.985,66.0
1.986,66.2
1.987,66.2
1.988,66.4
1.989,66.4
1.99,66.4
1.991,66.4
1.992,66.2
1.993,66.4
1.994,66.4
1.995,66.6
1.996,66.6
1.997,66.6
1.998,66.6
1.999,66.6
2.0,66.6
2.001,66.8
2.0020000000000002,66.8
2.003,67.0
2.004,67.0
2.005,67.0
2.0060000000000002,67.0
2.007,67.0
2.008,67.0
2.009,67.0
2.0100000000000002,67.2
2.011,67.2
2.012,67.2
2.013,67.2
2.0140000000000002,67.4
2.015,67.4
2.016,67.4
2.017,67.4
2.0180000000000002,67.6
2.019,67.8
2.02,67.6
2.021,67.6
2.0220000000000002,67.6
2.023,67.6
2.024,68.0
2.025,67.8
2.0260000000000002,68.0
2.027,67.8
2.028,68.0
2.029,68.0
2.0300000000000002,67.8
2.031,68.2
2.032,68.0
2.033,68.2
2.0340000000000003,68.4
2.035,68.2
2.036,68.4
2.037,68.4
2.0380000000000003,68.4
2.039,68.6
2.04,68.6
2.041,68.8
2.0420000000000003,68.6
2.043,68.6
2.044,68.6
2.045,68.8
2.0460000000000003,68.8
2.047,68.8
2.048,68.8
2.049,69.0
2.05,69.0
2.051,69.0
2.052,69.0
2.053,69.0
2.054,69.2
2.055,69.0
2.056,69.2
2.057,69.4
2.058,69.4
2.059,69.4
2.06,69.4
2.061,69.6
2.062,69.6
2.063,69.6
2.064,69.8
2.065,70.0
2.066,70.0
2.067,70.0
2.068,69.6
2.069,69.8
2.07,70.0
2.071,70.0
2.072,70.2
2.073,70.2
2.074,70.4
2.075,70.4
2.076,70.4
2.077,70.2
2.078,70.2
2.079,70.4
2.08,70.4
2.081,70.6
2.082,70.6
2.083,70.6
2.084,70.6
2.085,70.6
2.086,70.6
2.087,70.6
2.088,70.8
2.089,70.8
2.09,70.8
2.091,70.8
2.092,70.8
2.093,70.8
2.094,71.0
2.095,71.0
2.096,71.2
2.097,71.0
2.098,71.0
2.099,71.2
2.1,71.4
2.101,71.2
2.102,71.4
2.103,71.2
2.104,71.4
2.105,71.4
2.106,71.6
2.107,71.4
2.108,71.4
2.109,71.6
2.11,71.4
2.111,71.6
2.112,71.4
2.113,71.6
2.114,71.6
2.115,71.6
2.116,72.0
2.117,72.0
2.118,72.0
2.119,71.8
2.12,72.0
2.121,71.8
2.122,72.0
2.123,72.0
2.124,72.0
2.125,71.8
2.126,72.0
2.1270000000000002,72.0
2.128,72.0
2.129,72.0
2.13,72.2
2.1310000000000002,72.0
2.132,72.0
2.133,72.2
2.134,72.4
2.1350000000000002,72.2
2.136,72.2
2.137,72.4
2.138,72.2
2.1390000000000002,72.0
2.14,72.4
2.141,72.4
2.142,72.4
2.1430000000000002,72.4
2.144,72.4
2.145,72.4
2.146,72.4
2.1470000000000002,72.6
2.148,72.4
2.149,72.4
2.15,72.6
2.1510000000000002,72.4
2.152,72.6
2.153,72.6
2.154,72.6
2.1550000000000002,72.6
2.156,72.6
2.157,72.8
2.158,72.8
2.1590000000000003,72.6
2.16,72.6
2.161,72.6
2.162,72.8
2.1630000000000003,72.8
2.164,72.8
2.165,72.8
2.166,72.8
2.1670000000000003,72.6
2.168,72.6
2.169,72.8
2.17,72.8
2.1710000000000003,72.6
2.172,72.8
2.173,72.8
2.174,72.8
2.1750000000000003,73.0
2.176,72.8
2.177,72.6
2.178,72.8
2.179,72.8
2.18,73.0
2.181,72.8
2.182,72.8
2.183,72.8
2.184,73.0
2.185,72.8
2.186,73.0
2.187,73.0
2.188,72.8
2.189,73.0
2.19,72.8
2.191,72.8
2.192,72.6
2.193,72.8
2.194,72.8
2.195,72.8
2.196,72.6
2.197,72.8
2.198,72.8
2.199,73.0
2.2,72.8
2.201,72.8
2.202,72.6
2.203,72.8
2.204,72.8
2.205,73.0
2.206,72.8
2.207,72.6
2.208,72.8
2.209,72.8
2.21,72.6
2.211,72.6
2.212,72.8
2.213,72.8
2.214,72.8
2.215,72.6
2.216,72.6
2.217,72.8
2.218,72.4
2.219,72.6
2.22,72.2
2.221,72.4
2.222,72.6
2.223,72.4
2.224,72.2
2.225,72.4
2.226,72.2
2.227,72.4
2.228,72.2
2.229,72.4
2.23,72.2
2.231,72.2
2.232,72.4
2.233,72.4
2.234,72.2
2.235,72.2
2.236,72.2
2.237,72.0
2.238,71.8
2.239,72.0
2.24,72.2
2.241,72.0
2.242,72.0
2.243,72.0
2.244,72.0
2.245,72.2
2.246,72.0
2.247,71.8
2.248,72.0
2.249,72.0
2.25,71.8
2.251,72.0
2.2520000000000002,71.8
2.253,72.0
2.254,71.6
2.255,71.8
2.2560000000000002,71.6
2.257,71.6
2.258,71.6
2.259,71.6
2.2600000000000002,71.6
2.261,71.6
2.262,71.4
2.263,71.4
2.2640000000000002,71.4
2.265,71.4
2.266,71.0
2.267,71.0
2.2680000000000002,71.4
2.269,71.2
2.27,71.2
2.271,71.0
2.2720000000000002,71.0
2.273,71.0
2.274,71.0
2.275,71.0
2.2760000000000002,70.8
2.277,70.8
2.278,70.8
2.279,70.8
2.2800000000000002,70.8
2.281,71.0
2.282,70.6
2.283,70.8
2.2840000000000003,70.6
2.285,70.8
2.286,70.6
2.287,70.4
2.2880000000000003,70.4
2.289,70.4
2.29,70.2
2.291,70.2
2.2920000000000003,70.4
2.293,70.2
2.294,70.4
2.295,70.2
2.2960000000000003,70.2
2.297,70.0
2.298,70.2
2.299,70.0
2.3000000000000003,69.8
2.301,69.6
2.302,69.8
2.303,69.8
2.3040000000000003,69.8
2.305,69.6
2.306,69.6
2.307,69.4
2.308,69.4
2.309,69.4
2.31,69.2
2.311,69.2
2.312,69.4
2.313,69.2
2.314,69.2
2.315,69.2
2.316,69.2
2.317,69.2
2.318,69.2
2.319,69.0
2.32,69.0
2.321,68.8
2.322,69.0
2.323,68.8
2.324,68.8
2.325,68.8
2.326,68.8
2.327,68.8
2.328,68.4
2.329,68.4
2.33,68.6
2.331,68.4
2.332,68.2
2.333,68.4
2.334,68.2
2.335,68.4
2.336,68.2
2.337,68.2
2.338,68.0
2.339,68.0
2.34,68.0
2.341,67.8
2.342,67.8
2.343,67.8
2.344,67.6
2.345,67.8
2.346,67.6
2.347,67.8
2.348,67.6
2.349,67.4
2.35,67.6
2.351,67.6
2.352,67.4
2.353,67.4
2.354,67.2
2.355,67.2
2.356,67.2
2.357,67.2
2.358,67.2
2.359,67.0
2.36,67.0
2.361,67.0
2.362,67.0
2.363,67.0
2.364,66.8
2.365,66.6
2.366,66.8
2.367,66.8
2.368,66.8
2.369,66.4
2.37,66.6
2.371,66.6
2.372,66.6
2.373,66.4
2.374,66.2
2.375,66.4
2.376,66.2
2.3770000000000002,66.2
2.378,66.4
2.379,66.2
2.38,66.2
2.3810000000000002,66.0
2.382,66.0
2.383,66.2
2.384,66.2
2.3850000000000002,66.0
2.386,65.8
2.387,65.8
2.388,65.8
2.3890000000000002,65.6
2.39,65.6
2.391,65.8
2.392,65.8
2.3930000000000002,65.6
2.394,65.4
2.395,65.6
2.396,65.4
2.3970000000000002,65.6
2.398,65.8
2.399,65.4
2.4,65.4
2.4010000000000002,65.4
2.402,65.2
2.403,65.2
2.404,65.0
2.4050000000000002,65.0
2.406,65.0
2.407,65.0
2.408,65.0
2.4090000000000003,64.8
2.41,65.0
2.411,64.8
2.412,64.8
2.4130000000000003,65.0
2.414,65.0
2.415,64.8
2.416,64.6
2.4170000000000003,64.8
2.418,64.8
2.419,64.8
2.42,64.8
2.4210000000000003,64.6
2.422,64.6
2.423,64.4
2.424,64.6
2.4250000000000003,64.6
2.426,64.4
2.427,64.6
2.428,64.4
2.4290000000000003,64.2
2.43,64.6
2.431,64.4
2.432,64.2
2.433,64.4
2.434,64.4
2.435,64.2
2.436,64.2
2.437,64.2
2.438,64.2
2.439,64.2
2.44,64.2
2.441,64.2
2.442,64.2
2.443,64.2
2.444,64.2
2.445,64.4
2.446,64.2
2.447,64.2
2.448,64.2
2.449,64.2
2.45,64.0
2.451,64.0
2.452,64.0
2.453,64.2
2.454,63.8
2.455,64.2
2.456,64.0
2.457,64.0
2.458,64.0
2.459,64.0
2.46,64.0
2.461,64.0
2.462,64.0
2.463,63.8
2.464,63.8
2.465,63.6
2.466,64.0
2.467,64.0
2.468,63.8
2.469,63.8
2.47,64.0
2.471,63.8
2.472,63.8
2.473,63.8
2.474,63.8
2.475,63.8
2.476,63.8
2.477,63.6
2.478,64.0
2.479,64.0
2.48,63.6
2.481,64.0
2.482,63.8
2.483,64.0
2.484,63.8
2.485,63.8
2.486,63.8
2.487,63.8
2.488,63.8
2.489,64.0
2.49,63.8
2.491,63.8
2.492,63.8
2.493,63.8
2.494,63.6
2.495,63.8
2.496,64.0
2.497,64.0
2.498,64.0
2.499,63.8
2.5,64.0
2.501,64.0
2.5020000000000002,64.0
2.503,64.0
2.504,64.0
2.505,64.0
2.5060000000000002,64.0
2.507,64.0
2.508,63.8
2.509,64.0
2.5100000000000002,64.2
2.511,64.0
2.512,64.0
2.513,64.2
2.5140000000000002,64.2
2.515,64.0
2.516,64.2
2.517,63.8
2.5180000000000002,64.0
2.519,64.2
2.52,64.0
2.521,64.0
2.5220000000000002,64.2
2.523,64.2
2.524,64.2
2.525,64.2
2.5260000000000002,64.2
2.527,64.0
2.528,64.2
2.529,64.4
2.5300000000000002,64.4
2.531,64.0
2.532,64.4
2.533,64.4
2.5340000000000003,64.2
2.535,64.4
2.536,64.4
2.537,64.4
2.5380000000000003,64.4
2.539,64.4
2.54,64.4
2.541,64.4
2.5420000000000003,64.6
2.543,64.6
2.544,64.4
2.545,64.6
2.5460000000000003,64.6
2.547,64.6
2.548,64.8
2.549,64.4
2.5500000000000003,64.6
2.551,64.8
2.552,64.8
2.553,64.8
2.5540000000000003,65.0
2.555,65.0
2.556,64.8
2.557,64.8
2.5580000000000003,64.8
2.559,65.0
2.56,65.0
2.561,65.0
2.562,64.8
2.563,64.8
2.564,65.0
2.565,65.2
2.566,65.2
2.567,65.0
2.568,65.0
2.569,65.2
2.57,65.2
2.571,65.2
2.572,65.2
2.573,65.2
2.574,65.4
2.575,65.4
2.576,65.4
2.577,65.4
2.578,65.4
2.579,65.4
2.58,65.6
2.581,65.8
2.582,65.8
2.583,65.8
2.584,65.6
2.585,65.8
2.586,65.6
2.587,65.6
2.588,65.8
2.589,65.8
2.59,65.8
2.591,66.0
2.592,65.8
2.593,65.8
2.594,66.0
2.595,66.2
2.596,66.2
2.597,66.0
2.598,66.2
2.599,66.0
2.6,66.0
2.601,66.2
2.602,66.4
2.603,66.4
2.604,66.4
2.605,66.2
2.606,66.2
2.607,66.4
2.608,66.4
2.609,66.4
2.61,66.6
2.611,66.6
2.612,66.6
2.613,66.8
2.614,66.8
2.615,67.0
2.616,66.8
2.617,66.8
2.618,67.0
2.619,66.8
2.62,67.0
2.621,67.0
2.622,67.2
2.623,67.4
2.624,67.2
2.625,67.4
2.626,67.4
2.6270000000000002,67.4
2.628,67.4
2.629,67.4
2.63,67.4
2.6310000000000002,67.6
2.632,67.6
2.633,67.6
2.634,67.6
2.6350000000000002,67.8
2.636,67.8
2.637,67.8
2.638,67.8
2.6390000000000002,68.0
2.64,67.8
2.641,68.0
2.642,68.0
2.6430000000000002,68.0
2.644,68.0
2.645,68.2
2.646,68.4
2.6470000000000002,68.2
2.648,68.2
2.649,68.4
2.65,68.4
2.6510000000000002,68.4
2.652,68.6
2.653,68.4
2.654,68.4
2.6550000000000002,68.6
2.656,68.8
2.657,68.6
2.658,68.8
2.6590000000000003,69.0
2.66,69.0
2.661,69.0
2.662,69.0
2.6630000000000003,69.0
2.664,69.0
2.665,69.2
2.666,69.0
2.6670000000000003,69.2
2.668,69.2
2.669,69.2
2.67,69.4
2.6710000000000003,69.4
2.672,69.2
2.673,69.4
2.674,69.6
2.6750000000000003,69.8
2.676,69.8
2.677,69.6
2.678,69.8
2.6790000000000003,69.8
2.68,69.8
2.681,70.0
2.682,70.0
2.6830000000000003,69.8
2.684,70.0
2.685,70.0
2.686,70.0
2.6870000000000003,70.0
2.688,70.2
2.689,70.4
2.69,70.4
2.691,70.2
2.692,70.4
2.693,70.4
2.694,70.4
2.695,70.6
2.696,70.6
2.697,70.6
2.698,70.4
2.699,70.4
2.7,70.8
2.701,70.8
2.702,70.6
2.703,70.8
2.704,70.8
2.705,70.8
2.706,70.8
2.707,71.0
2.708,71.2
2.709,71.2
2.71,71.2
2.711,71.2
2.712,71.4
2.713,71.0
2.714,71.4
2.715,71.0
2.716,71.2
2.717,71.4
2.718,71.4
2.719,71.2
2.72,71.4
2.721,71.6
2.722,71.6
2.723,71.4
2.724,71.6
2.725,71.4
2.726,71.6
2.727,71.8
2.728,72.0
2.729,71.6
2.73,71.6
2.731,72.0
2.732,71.8
2.733,71.8
2.734,71.8
2.735,72.2
2.736,71.8
2.737,72.0
2.738,72.0
2.739,72.2
2.74,72.0
2.741,72.2
2.742,72.0
2.743,72.2
2.744,72.2
2.745,72.2
2.746,72.0
2.747,72.2
2.748,72.2
2.749,72.2
2.75,72.2
2.751,72.2
2.7520000000000002,72.4
2.753,72.2
2.754,72.4
2.755,72.4
2.7560000000000002,72.4
2.757,72.6
2.758,72.6
2.759,72.4
2.7600000000000002,72.6
2.761,72.2
2.762,72.2
2.763,72.6
2.7640000000000002,72.6
2.765,72.4
2.766,72.4
2.767,72.6
2.7680000000000002,72.8
2.769,72.8
2.77,72.4
2.771,72.8
2.7720000000000002,72.4
2.773,72.6
2.774,72.8
2.775,72.6
2.7760000000000002,72.8
2.777,72.6
2.778,73.0
2.779,73.0
2.7800000000000002,73.0
2.781,72.8
2.782,72.6
2.783,73.0
2.7840000000000003,72.8
2.785,72.8
2.786,72.8
2.787,73.0
2.7880000000000003,72.8
2.789,73.0
2.79,72.6
2.791,72.8
2.7920000000000003,73.0
2.793,73.0
2.794,72.8
2.795,73.0
2.7960000000000003,72.6
2.797,72.8
2.798,72.8
2.799,72.8
2.8000000000000003,73.0
2.801,72.6
2.802,72.8
2.803,72.8
2.8040000000000003,72.8
2.805,72.6
2.806,73.0
2.807,72.8
2.8080000000000003,73.0
2.809,72.8
2.81,72.8
2.811,73.0
2.8120000000000003,72.6
2.813,72.8
2.814,72.8
2.815,72.6
2.816,72.8
2.817,72.6
2.818,72.6
2.819,72.6
2.82,72.8
2.821,72.6
2.822,72.6
2.823,72.6
2.824,72.6
2.825,72.6
2.826,72.6
2.827,72.4
2.828,72.6
2.829,72.8
2.83,72.6
2.831,72.4
2.832,72.4
2.833,72.4
2.834,72.4
2.835,72.4
2.836,72.6
2.837,72.4
2.838,72.4
2.839,72.4
2.84,72.6
2.841,72.4
2.842,72.4
2.843,72.4
2.844,72.2
2.845,72.4
2.846,72.0
2.847,72.4
2.848,72.2
2.849,72.4
2.85,72.2
2.851,72.2
2.852,72.0
2.853,72.2
2.854,71.8
2.855,72.0
2.856,72.0
2.857,72.0
2.858,72.0
2.859,71.8
2.86,72.0
2.861,71.8
2.862,72.0
2.863,72.0
2.864,71.8
2.865,71.6
2.866,72.0
2.867,71.8
2.868,72.0
2.869,71.4
2.87,71.4
2.871,71.4
2.872,71.6
2.873,71.4
2.874,71.6
2.875,71.4
2.876,71.4
2.8770000000000002,71.4
2.878,71.2
2.879,71.4
2.88,71.4
2.8810000000000002,71.2
2.882,71.4
2.883,71.2
2.884,71.2
2.8850000000000002,71.0
2.886,71.0
2.887,71.0
2.888,71.0
2.8890000000000002,70.8
2.89,70.8
2.891,70.8
2.892,71.0
2.8930000000000002,71.0
2.894,70.8
2.895,70.8
2.896,70.8
2.8970000000000002,70.6
2.898,70.6
2.899,70.4
2.9,70.4
2.9010000000000002,70.6
2.902,70.2
2.903,70.4
2.904,70.2
2.9050000000000002,70.4
2.906,70.4
2.907,70.4
2.908,70.2
2.9090000000000003,70.2
2.91,70.2
2.911,69.8
2.912,70.0
2.9130000000000003,70.0
2.914,70.0
2.915,70.0
2.916,70.0
2.9170000000000003,69.6
2.918,69.8
2.919,69.8
2.92,69.6
2.9210000000000003,69.6
2.922,69.6
2.923,69.4
2.924,69.4
2.9250000000000003,69.4
2.926,69.4
2.927,69.2
2.928,69.2
2.9290000000000003,69.2
2.93,69.0
2.931,69.0
2.932,69.0
2.9330000000000003,69.0
2.934,69.0
2.935,69.0
2.936,68.8
2.9370000000000003,68.8
2.938,68.6
2.939,68.8
2.94,68.8
2.9410000000000003,68.6
2.942,68.6
2.943,68.4
2.944,68.6
2.945,68.2
2.946,68.4
2.947,68.4
2.948,68.4
2.949,68.2
2.95,68.0
2.951,68.2
2.952,68.2
2.953,68.0
2.954,67.8
2.955,68.0
2.956,68.0
2.957,67.8
2.958,67.6
2.959,67.6
2.96,67.6
2.961,67.8
2.962,67.6
2.963,67.4
2.964,67.6
2.965,67.4
2.966,67.4
2.967,67.4
2.968,67.4
2.969,67.2
2.97,67.2
2.971,67.0
2.972,67.2
2.973,67.0
2.974,67.2
2.975,67.0
2.976,67.0
2.977,66.8
2.978,66.8
2.979,66.8
2.98,66.8
2.981,66.8
2.982,66.8
2.983,66.6
2.984,66.6
2.985,66.6
2.986,66.4
2.987,66.4
2.988,66.4
2.989,66.2
2.99,66.2
2.991,66.4
2.992,66.4
2.993,66.4
2.994,66.2
2.995,66.0
2.996,66.2
2.997,66.2
2.998,66.0
2.999,65.8
3.0,65.8
3.001,65.8
3.0020000000000002,65.8
3.003,65.6
3.004,65.8
3.005,65.8
3.0060000000000002,65.8
3.007,65.8
3.008,65.8
3.009,65.6
3.0100000000000002,65.4
3.011,65.6
3.012,65.2
3.013,65.4
3.0140000000000002,65.4
3.015,65.4
3.016,65.0
3.017,65.2
3.0180000000000002,65.0
3.019,65.2
3.02,65.0
3.021,65.0
3.0220000000000002,65.0
3.023,65.2
3.024,65.0
3.025,65.0
3.0260000000000002,65.0
3.027,64.8
3.028,65.0
3.029,64.6
3.0300000000000002,64.8
3.031,64.8
3.032,64.8
3.033,64.6
3.0340000000000003,64.8
3.035,64.6
3.036,64.6
3.037,64.6
3.0380000000000003,64.6
3.039,64.6
3.04,64.4
3.041,64.4
3.0420000000000003,64.4
3.043,64.4
3.044,64.2
3.045,64.4
3.0460000000000003,64.4
3.047,64.4
3.048,64.2
3.049,64.6
3.0500000000000003,64.4
3.051,64.4
3.052,64.2
3.053,64.4
3.0540000000000003,64.4
3.055,64.2
3.056,64.2
3.057,64.0
3.0580000000000003,64.0
3.059,64.0
3.06,64.2
3.061,64.2
3.0620000000000003,64.0
3.063,64.0
3.064,64.0
3.065,64.2
3.0660000000000003,64.2
3.067,64.0
3.068,64.0
3.069,64.0
3.0700000000000003,64.0
3.071,64.2
3.072,64.0
3.073,63.8
3.074,64.0
3.075,64.0
3.076,64.0
3.077,64.0
3.078,64.0
3.079,63.8
3.08,64.0
3.081,64.0
3.082,63.8
3.083,63.8
3.084,63.8
3.085,64.0
3.086,64.2
3.087,63.8
3.088,63.6
3.089,63.6
3.09,63.8
3.091,64.0
3.092,63.8
3.093,64.0
3.094,63.6
3.095,63.8
3.096,63.8
3.097,63.8
3.098,63.6
3.099,64.0
3.1,63.8
3.101,63.6
3.102,63.8
3.103,64.0
3.104,63.8
3.105,64.0
3.106,64.0
3.107,64.0
3.108,64.2
3.109,63.6
3.11,64.0
3.111,63.8
3.112,64.2
3.113,64.0
3.114,63.8
3.115,64.0
3.116,64.0
3.117,64.2
3.118,64.0
3.119,64.0
3.12,64.2
3.121,64.0
3.122,63.8
3.123,64.0
3.124,64.2
3.125,64.0
3.126,64.2
3.1270000000000002,64.2
3.128,64.0
3.129,64.0
3.13,64.0
3.1310000000000002,64.2
3.132,64.0
3.133,64.4
3.134,64.2
3.1350000000000002,64.0
3.136,64.4
3.137,64.2
3.138,64.2
3.1390000000000002,64.2
3.14,64.2
3.141,64.4
3.142,64.4
3.1430000000000002,64.0
3.144,64.4
3.145,64.4
3.146,64.4
3.1470000000000002,64.2
3.148,64.4
3.149,64.4
3.15,64.4
3.1510000000000002,64.2
3.152,64.6
3.153,64.4
3.154,64.6
3.1550000000000002,64.6
3.156,64.4
3.157,64.4
3.158,64.6
3.1590000000000003,64.6
3.16,64.8
3.161,64.6
3.162,64.6
3.1630000000000003,64.6
3.164,64.8
3.165,64.8
3.166,64.6
3.1670000000000003,64.8
3.168,64.6
3.169,64.8
3.17,64.8
3.1710000000000003,65.0
3.172,65.0
3.173,65.0
3.174,65.0
3.1750000000000003,64.8
3.176,65.0
3.177,65.0
3.178,65.0
3.1790000000000003,64.8
3.18,65.0
3.181,65.0
3.182,65.0
3.1830000000000003,65.2
3.184,65.0
3.185,65.2
3.186,65.0
3.1870000000000003,65.2
3.188,65.2
3.189,65.4
3.19,65.4
3.1910000000000003,65.2
3.192,65.4
3.193,65.4
3.194,65.4
3.1950000000000003,65.6
3.196,65.6
3.197,65.4
3.198,65.8
3.1990000000000003,65.6
3.2,65.8
3.201,65.6
3.202,65.8
3.203,65.8
3.204,65.8
3.205,66.0
3.206,66.0
3.207,66.0
3.208,65.8
3.209,66.2
3.21,66.0
3.211,66.2
3.212,66.4
3.213,66.2
3.214,66.2
3.215,66.4
3.216,66.4
3.217,66.4
3.218,66.2
3.219,66.4
3.22,66.4
3.221,66.6
3.222,66.4
3.223,66.6
3.224,66.4
3.225,66.6
3.226,66.6
3.227,66.8
3.228,66.8
3.229,67.0
3.23,66.8
3.231,67.0
3.232,66.8
3.233,67.0
3.234,67.0
3.235,67.2
3.236,67.2
3.237,67.2
3.238,67.2
3.239,67.4
3.24,67.2
3.241,67.4
3.242,67.2
3.243,67.4
3.244,67.4
3.245,67.6
3.246,67.6
3.247,67.6
3.248,67.6
3.249,67.8
3.25,67.8
3.251,67.8
3.2520000000000002,68.0
3.253,67.8
3.254,68.0
3.255,68.0
3.2560000000000002,67.8
3.257,68.0
3.258,68.2
3.259,68.2
3.2600000000000002,68.4
3.261,68.2
3.262,68.4
3.263,68.2
3.2640000000000002,68.4
3.265,68.2
3.266,68.6
3.267,68.6
3.2680000000000002,68.4
3.269,68.6
3.27,68.6
3.271,68.8
3.2720000000000002,68.8
3.273,68.8
3.274,68.8
3.275,69.0
3.2760000000000002,68.8
3.277,69.0
3.278,69.2
3.279,69.0
3.2800000000000002,69.0
3.281,69.2
3.282,69.2
3.283,69.2
3.2840000000000003,69.4
3.285,69.4
3.286,69.4
3.287,69.6
3.2880000000000003,69.6
3.289,69.6
3.29,69.8
3.291,69.6
3.2920000000000003,69.8
3.293,69.8
3.294,69.8
3.295,69.8
3.2960000000000003,69.8
3.297,70.0
3.298,70.0
3.299,70.2
3.3000000000000003,70.0
3.301,70.2
3.302,70.4
3.303,70.4
3.3040000000000003,70.4
3.305,70.6
3.306,70.4
3.307,70.4
3.3080000000000003,70.6
3.309,70.4
3.31,70.6
3.311,70.6
3.3120000000000003,70.8
3.313,70.4
3.314,70.6
3.315,70.6
3.3160000000000003,70.8
3.317,70.6
3.318,71.0
3.319,70.8
3.3200000000000003,70.8
3.321,71.0
3.322,71.0
3.323,70.8
3.3240000000000003,71.2
3.325,71.2
3.326,71.0
3.327,71.0
3.3280000000000003,71.2
3.329,71.4
3.33,71.2
3.331,71.2
3.332,71.4
3.333,71.2
3.334,71.4
3.335,71.4
3.336,71.4
3.337,71.4
3.338,71.4
3.339,71.6
3.34,72.0
3.341,71.6
3.342,71.8
3.343,71.8
3.344,71.6
3.345,71.8
3.346,72.0
3.347,72.0
3.348,72.0
3.349,72.0
3.35,72.0
3.351,72.0
3.352,72.2
3.353,72.0
3.354,72.0
3.355,71.8
3.356,72.0
3.357,72.2
3.358,72.2
3.359,72.0
3.36,72.0
3.361,72.2
3.362,72.2
3.363,72.4
3.364,72.2
3.365,72.2
3.366,72.4
3.367,72.2
3.368,72.4
3.369,72.4
3.37,72.6
3.371,72.4
3.372,72.4
3.373,72.4
3.374,72.6
3.375,72.6
3.376,72.4
3.3770000000000002,72.6
3.378,72.6
3.379,72.8
3.38,72.6
3.3810000000000002,72.8
3.382,72.8
3.383,72.8
3.384,72.6
3.3850000000000002,72.6
3.386,72.6
3.387,72.8
3.388,72.8
3.3890000000000002,72.8
3.39,72.6
3.391,72.8
3.392,72.6
3.3930000000000002,72.8
3.394,72.8
3.395,72.6
3.396,73.0
3.3970000000000002,73.0
3.398,72.6
3.399,72.8
3.4,72.8
3.4010000000000002,73.0
3.402,72.8
3.403,72.8
3.404,73.0
3.4050000000000002,72.8
3.406,72.8
3.407,73.0
3.408,72.8
3.4090000000000003,73.0
3.41,72.8
3.411,73.0
3.412,72.8
3.4130000000000003,73.0
3.414,73.0
3.415,73.0
3.416,72.8
3.4170000000000003,72.8
3.418,72.8
3.419,72.8
3.42,72.8
3.4210000000000003,72.8
3.422,72.8
3.423,72.6
3.424,73.0
3.4250000000000003,72.6
3.426,72.6
3.427,72.6
3.428,72.8
3.4290000000000003,72.6
3.43,72.8
3.431,73.0
3.432,72.8
3.4330000000000003,72.8
3.434,72.8
3.435,72.6
3.436,72.6
3.4370000000000003,72.8
3.438,72.6
3.439,72.8
3.44,72.4
3.4410000000000003,72.6
3.442,72.4
3.443,72.8
3.444,72.4
3.4450000000000003,72.6
3.446,72.6
3.447,72.6
3.448,72.6
3.4490000000000003,72.6
3.45,72.6
3.451,72.6
3.452,72.4
3.4530000000000003,72.4
3.454,72.2
3.455,72.2
3.456,72.4
3.457,72.4
3.458,72.0
3.459,72.2
3.46,72.4
3.461,72.4
3.462,72.2
3.463,72.2
3.464,72.0
3.465,72.2
3.466,72.2
3.467,72.2
3.468,72.2
3.469,72.2
3.47,72.0
3.471,72.2
3.472,72.0
3.473,72.0
3.474,72.0
3.475,71.8
3.476,72.0
3.477,71.8
3.478,71.6
3.479,71.6
3.48,71.6
3.481,71.8
3.482,71.6
3.483,71.4
3.484,71.4
3.485,71.4
3.486,71.6
3.487,71.4
3.488,71.6
3.489,71.4
3.49,71.2
3.491,71.4
3.492,71.4
3.493,71.2
3.494,71.2
3.495,71.2
3.496,71.2
3.497,71.2
3.498,71.0
3.499,71.2
3.5,71.0
3.501,71.0
3.5020000000000002,71.0
3.503,71.0
3.504,71.0
3.505,70.6
3.5060000000000002,70.8
3.507,70.8
3.508,70.8
3.509,70.8
3.5100000000000002,70.8
3.511,70.4
3.512,70.6
3.513,70.6
3.5140000000000002,70.6
3.515,70.4
3.516,70.4
3.517,70.2
3.5180000000000002,70.2
3.519,70.4
3.52,70.4
3.521,70.2
3.5220000000000002,70.0
3.523,70.4
3.524,70.0
3.525,69.8
3.5260000000000002,69.8
3.527,70.2
3.528,69.8
3.529,69.6
3.5300000000000002,69.8
3.531,69.6
3.532,69.8
3.533,69.8
3.5340000000000003,69.6
3.535,69.6
3.536,69.6
3.537,69.4
3.5380000000000003,69.4
3.539,69.2
3.54,69.2
3.541,69.2
3.5420000000000003,69.2
3.543,69.2
3.544,69.0
3.545,69.2
3.5460000000000003,69.0
3.547,69.0
3.548,68.8
3.549,69.0
3.5500000000000003,68.8
3.551,68.8
3.552,68.8
3.553,68.8
3.5540000000000003,68.4
3.555,68.8
3.556,68.6
3.557,68.6
3.5580000000000003,68.4
3.559,68.4
3.56,68.4
3.561,68.2
3.5620000000000003,68.2
3.563,68.2
3.564,68.2
3.565,67.8
3.5660000000000003,68.0
3.567,68.0
3.568,68.0
3.569,67.8
3.5700000000000003,67.8
3.571,67.8
3.572,67.6
3.573,67.6
3.5740000000000003,67.8
3.575,67.6
3.576,67.6
3.577,67.4
3.5780000000000003,67.4
3.579,67.4
3.58,67.4
3.581,67.4
3.5820000000000003,67.2
3.583,67.2
3.584,67.2
3.585,67.0
3.586,67.2
3.587,67.2
3.588,67.0
3.589,66.8
3.59,67.0
3.591,67.0
3.592,66.8
3.593,66.8
3.594,66.8
3.595,66.6
3.596,66.6
3.597,66.6
3.598,66.6
3.599,66.4
3.6,66.6
3.601,66.4
3.602,66.4
3.603,66.4
3.604,66.2
3.605,66.4
3.606,66.2
3.607,66.2
3.608,66.2
3.609,66.2
3.61,66.0
3.611,66.0
3.612,66.0
3.613,65.8
3.614,65.8
3.615,66.0
3.616,65.8
3.617,65.6
3.618,65.8
3.619,65.8
3.62,65.6
3.621,65.6
3.622,65.8
3.623,65.6
3.624,65.4
3.625,65.4
3.626,65.6
3.6270000000000002,65.4
3.628,65.4
3.629,65.2
3.63,65.2
3.6310000000000002,65.2
3.632,65.0
3.633,65.2
3.634,65.0
3.6350000000000002,65.0
3.636,65.0
3.637,65.0
3.638,64.6
3.6390000000000002,65.0
3.64,64.8
3.641,64.8
3.642,64.8
3.6430000000000002,64.8
3.644,64.8
3.645,64.8
3.646,64.6
3.6470000000000002,64.8
3.648,64.6
3.649,64.6
3.65,64.4
3.6510000000000002,64.4
3.652,64.4
3.653,64.4
3.654,64.6
3.6550000000000002,64.6
3.656,64.4
3.657,64.4
3.658,64.6
3.6590000000000003,64.2
3.66,64.4
3.661,64.0
3.662,64.2
3.6630000000000003,64.2
3.664,64.0
3.665,64.2
3.666,64.2
3.6670000000000003,64.4
3.668,64.2
3.669,64.2
3.67,64.2
3.6710000000000003,64.2
3.672,64.2
3.673,64.0
3.674,64.2
3.6750000000000003,64.0
3.676,64.0
3.677,64.0
3.678,64.2
3.6790000000000003,64.0
3.68,64.2
3.681,64.0
3.682,64.0
3.6830000000000003,64.0
3.684,64.0
3.685,64.0
3.686,64.2
3.6870000000000003,63.8
3.688,63.8
3.689,63.8
3.69,64.0
3.6910000000000003,63.8
3.692,63.8
3.693,64.2
3.694,64.0
3.6950000000000003,63.8
3.696,63.8
3.697,64.0
3.698,63.8
3.6990000000000003,64.0
3.7,63.8
3.701,64.0
3.702,64.0
3.7030000000000003,63.6
3.704,63.8
3.705,63.8
3.706,63.8
3.7070000000000003,64.0
3.708,63.8
3.709,63.8
3.71,63.8
3.7110000000000003,63.8
3.712,63.8
3.713,63.6
3.714,63.8
3.715,64.0
3.716,63.6
3.717,63.8
3.718,63.8
3.719,63.6
3.72,64.0
3.721,64.0
3.722,63.8
3.723,63.8
3.724,64.0
3.725,63.8
3.726,63.8
3.727,64.0
3.728,64.2
3.729,64.0
3.73,64.0
3.731,64.0
3.732,64.0
3.733,64.2
3.734,64.2
3.735,64.2
3.736,64.0
3.737,64.0
3.738,64.0
3.739,64.0
3.74,64.2
3.741,64.0
3.742,64.2
3.743,64.2
3.744,64.2
3.745,64.0
3.746,64.2
3.747,64.2
3.748,64.2
3.749,64.2
3.75,64.0
3.751,64.0
3.7520000000000002,64.0
3.753,64.4
3.754,64.2
3.755,64.2
3.7560000000000002,64.2
3.757,64.2
3.758,64.2
3.759,64.4
3.7600000000000002,64.2
3.761,64.2
3.762,64.2
3.763,64.2
3.7640000000000002,64.4
3.765,64.4
3.766,64.6
3.767,64.4
3.7680000000000002,64.6
3.769,64.6
3.77,64.6
3.771,64.6
3.7720000000000002,64.6
3.773,64.8
3.774,64.6
3.775,64.6
3.7760000000000002,64.6
3.777,64.4
3.778,64.6
3.779,64.8
3.7800000000000002,64.4
3.781,64.6
3.782,64.6
3.783,65.0
3.7840000000000003,64.8
3.785,64.8
3.786,64.8
3.787,65.0
3.7880000000000003,64.8
3.789,65.0
3.79,64.8
3.791,64.8
3.7920000000000003,65.2
3.793,65.0
3.794,65.0
3.795,65.2
3.7960000000000003,65.0
3.797,65.4
3.798,65.4
3.799,65.4
3.8000000000000003,65.2
3.801,65.2
3.802,65.0
3.803,65.2
3.8040000000000003,65.4
3.805,65.4
3.806,65.4
3.807,65.4
3.8080000000000003,65.4
3.809,65.4
3.81,65.6
3.811,65.4
3.8120000000000003,65.6
3.813,65.6
3.814,65.6
3.815,65.8
3.8160000000000003,65.8
3.817,66.0
3.818,65.8
3.819,65.8
3.8200000000000003,66.0
3.821,65.8
3.822,65.8
3.823,66.0
3.8240000000000003,66.2
3.825,66.2
3.826,66.2
3.827,66.4
3.8280000000000003,66.2
3.829,66.2
3.83,66.4
3.831,66.4
3.8320000000000003,66.4
3.833,66.4
3.834,66.4
3.835,66.4
3.8360000000000003,66.6
3.837,66.6
3.838,66.6
3.839,66.6
3.84,66.6
3.841,67.0
3.842,66.8
3.843,66.8
3.844,67.0
3.845,66.8
3.846,66.8
3.847,67.2
3.848,67.0
3.849,67.2
3.85,67.2
3.851,67.2
3.852,67.2
3.853,67.2
3.854,67.2
3.855,67.4
3.856,67.4
3.857,67.4
3.858,67.6
3.859,67.6
3.86,67.6
3.861,67.6
3.862,67.6
3.863,67.6
3.864,67.8
3.865,67.8
3.866,68.0
3.867,68.0
3.868,68.0
3.869,68.0
3.87,68.0
3.871,68.2
3.872,68.0
3.873,68.2
3.874,68.2
3.875,68.4
3.876,68.4
3.8770000000000002,68.2
3.878,68.4
3.879,68.6
3.88,68.4
3.8810000000000002,68.4
3.882,68.6
3.883,68.8
3.884,68.8
3.8850000000000002,68.8
3.886,68.8
3.887,68.8
3.888,68.8
3.8890000000000002,69.0
3.89,69.0
3.891,69.0
3.892,69.0
3.8930000000000002,69.2
3.894,69.0
3.895,69.2
3.896,69.4
3.8970000000000002,69.4
3.898,69.4
3.899,69.6
3.9,69.6
3.9010000000000002,69.4
3.902,69.8
3.903,69.6
3.904,69.8
3.9050000000000002,69.8
3.906,69.8
3.907,69.8
3.908,69.8
3.9090000000000003,70.0
3.91,70.0
3.911,70.0
3.912,70.2
3.9130000000000003,70.0
3.914,70.2
3.915,70.2
3.916,70.4
3.9170000000000003,70.2
3.918,70.4
3.919,70.4
3.92,70.2
3.9210000000000003,70.4
3.922,70.4
3.923,70.4
3.924,70.6
3.9250000000000003,70.6
3.926,70.6
3.927,70.6
3.928,70.8
3.9290000000000003,70.8
3.93,70.6
3.931,70.8
3.932,71.0
3.9330000000000003,70.8
3.934,71.0
3.935,70.8
3.936,71.0
3.9370000000000003,71.0
3.938,71.2
3.939,71.0
3.94,71.2
3.9410000000000003,71.0
3.942,71.4
3.943,71.2
3.944,71.4
3.9450000000000003,71.4
3.946,71.4
3.947,71.6
3.948,71.4
3.9490000000000003,71.4
3.95,71.4
3.951,71.6
3.952,71.6
3.9530000000000003,71.4
3.954,71.6
3.955,71.8
3.956,71.8
3.9570000000000003,71.6
3.958,71.8
3.959,71.8
3.96,71.8
3.9610000000000003,71.6
3.962,72.0
3.963,72.0
3.964,72.0
3.9650000000000003,72.0
3.966,72.0
3.967,72.2
3.968,72.2
3.969,72.0
3.97,72.0
3.971,72.2
3.972,72.0
3.973,72.0
3.974,72.2
3.975,72.0
3.976,72.4
3.977,72.2
3.978,72.2
3.979,72.2
3.98,72.2
3.981,72.4
3.982,72.4
3.983,72.4
3.984,72.4
3.985,72.2
3.986,72.4
3.987,72.6
3.988,72.6
3.989,72.4
3.99,72.6
3.991,72.4
3.992,72.6
3.993,72.6
3.994,72.6
3.995,72.6
3.996,72.8
3.997,72.6
3.998,72.8
3.999,72.6
4.0,72.6
4.001,72.8
4.002,72.6
4.003,72.6
4.0040000000000004,72.8
4.005,72.8
4.006,72.4
4.007,72.8
4.008,72.8
4.009,73.0
4.01,72.6
4.011,72.8
4.0120000000000005,72.8
4.013,73.0
4.014,73.0
4.015,72.8
4.016,72.8
4.017,73.0
4.018,73.0
4.019,72.8
4.0200000000000005,72.8
4.021,72.8
4.022,73.0
4.023,72.8
4.024,72.8
4.025,72.8
4.026,73.0
4.027,72.8
4.0280000000000005,72.8
4.029,73.0
4.03,72.8
4.031,72.8
4.032,73.0
4.033,72.8
4.034,72.6
4.035,72.8
4.0360000000000005,73.0
4.037,73.0
4.038,72.8
4.039,72.8
4.04,72.8
4.041,72.8
4.042,72.6
4.043,73.2
4.0440000000000005,72.8
4.045,73.0
4.046,72.8
4.047,72.8
4.048,72.6
4.049,72.6
4.05,72.8
4.051,72.8
4.0520000000000005,72.4
4.053,72.4
4.054,72.8
4.055,72.6
4.056,72.6
4.057,72.4
4.058,72.4
4.059,72.4
4.0600000000000005,72.2
4.061,72.6
4.062,72.6
4.063,72.6
4.064,72.2
4.065,72.4
4.066,72.4
4.067,72.6
4.0680000000000005,72.4
4.069,72.2
4.07,72.4
4.071,72.2
4.072,72.2
4.073,72.2
4.074,72.4
4.075,72.2
4.0760000000000005,72.2
4.077,72.2
4.078,72.0
4.079,72.0
4.08,72.2
4.081,72.2
4.082,72.2
4.083,72.0
4.0840000000000005,72.0
4.085,71.8
4.086,72.0
4.087,72.0
4.088,71.8
4.089,72.0
4.09,71.8
4.091,71.8
4.0920000000000005,71.8
4.093,71.6
4.094,71.8
4.095,71.6
4.096,72.0
4.097,71.8
4.098,71.6
4.099,71.4
4.1,71.6
4.101,71.4
4.102,71.6
4.103,71.6
4.104,71.4
4.105,71.2
4.106,71.2
4.107,71.2
4.108,71.4
4.109,70.8
4.11,71.2
4.111,70.8
4.112,71.0
4.113,71.2
4.114,71.2
4.115,70.8
4.116,71.0
4.117,71.0
4.118,70.6
4.119,70.8
4.12,70.8
4.121,70.8
4.122,70.6
4.123,70.8
4.124,71.0
4.125,70.6
4.126,70.6
4.127,70.6
4.128,70.4
4.1290000000000004,70.4
4.13,70.4
4.131,70.4
4.132,70.4
4.133,70.2
4.134,70.4
4.135,70.2
4.136,70.2
4.1370000000000005,70.0
4.138,70.0
4.139,70.2
4.14,70.0
4.141,69.8
4.142,70.0
4.143,69.8
4.144,70.0
4.1450000000000005,69.8
4.146,69.6
4.147,69.4
4.148,69.4
4.149,69.4
4.15,69.4
4.151,69.4
4.152,69.4
4.1530000000000005,69.4
4.154,69.2
4.155,69.0
4.156,69.2
4.157,69.2
4.158,69.0
4.159,69.0
4.16,69.0
4.1610000000000005,68.8
4.162,68.8
4.163,68.8
4.164,68.8
4.165,68.8
4.166,68.6
4.167,68.8
4.168,68.6
4.1690000000000005,68.6
4.17,68.6
4.171,68.4
4.172,68.4
4.173,68.4
4.174,68.4
4.175,68.2
4.176,68.0
4.1770000000000005,68.0
4.178,68.0
4.179,68.2
4.18,68.0
4.181,67.8
4.182,68.2
4.183,68.0
4.184,68.0
4.1850000000000005,67.6
4.186,67.8
4.187,67.6
4.188,67.6
4.189,67.6
4.19,67.4
4.191,67.4
4.192,67.4
4.1930000000000005,67.4
4.194,67.4
4.195,67.4
4.196,67.2
4.197,67.4
4.198,67.2
4.199,67.2
4.2,67.2
4.2010000000000005,67.0
4.202,67.0
4.203,66.8
4.204,66.8
4.205,66.8
4.206,67.0
4.207,66.8
4.208,66.6
4.2090000000000005,66.6
4.21,66.4
4.211,66.4
4.212,66.4
4.213,66.6
4.214,66.4
4.215,66.4
4.216,66.4
4.2170000000000005,66.2
4.218,66.2
4.219,66.2
4.22,66.2
4.221,66.0
4.222,66.2
4.223,66.0
4.224,66.0
4.225,66.2
4.226,66.0
4.227,65.8
4.228,65.8
4.229,65.8
4.23,65.8
4.231,65.8
4.232,65.6
4.233,65.8
4.234,65.6
4.235,65.8
4.236,65.6
4.237,65.6
4.238,65.6
4.239,65.4
4.24,65.2
4.241,65.2
4.242,65.4
4.243,65.4
4.244,65.4
4.245,65.2
4.246,65.0
4.247,65.0
4.248,65.2
4.249,65.4
4.25,65.0
4.251,65.0
4.252,65.0
4.253,64.8
4.2540000000000004,65.0
4.255,64.6
4.256,64.6
4.257,64.6
4.258,64.8
4.259,64.8
4.26,64.8
4.261,64.6
4.2620000000000005,64.8
4.263,64.6
4.264,64.6
4.265,64.8
4.266,64.6
4.267,64.4
4.268,64.4
4.269,64.4
4.2700000000000005,64.4
4.271,64.2
4.272,64.2
4.273,64.4
4.274,64.4
4.275,64.2
4.276,64.2
4.277,64.2
4.2780000000000005,64.2
4.279,64.4
4.28,64.2
4.281,64.2
4.282,64.2
4.283,64.2
4.284,64.2
4.285,64.2
4.2860000000000005,64.0
4.287,64.2
4.288,64.0
4.289,64.0
4.29,64.0
4.291,64.2
4.292,64.0
4.293,64.0
4.2940000000000005,64.2
4.295,64.2
4.296,64.0
4.297,64.0
4.298,64.0
4.299,64.0
4.3,64.0
4.301,64.2
4.3020000000000005,64.2
4.303,63.8
4.304,64.0
4.305,64.0
4.306,63.8
4.307,63.8
4.308,64.0
4.309,63.8
4.3100000000000005,63.8
4.311,63.8
4.312,63.8
4.313,63.8
4.314,63.8
4.315,64.0
4.316,63.6
4.317,63.6
4.3180000000000005,63.8
4.319,64.0
4.32,63.6
4.321,63.8
4.322,64.2
4.323,64.0
4.324,64.0
4.325,64.0
4.3260000000000005,63.8
4.327,63.8
4.328,63.8
4.329,63.8
4.33,63.8
4.331,63.8
4.332,63.8
4.333,64.0
4.3340000000000005,64.0
4.335,64.0
4.336,63.8
4.337,64.0
4.338,64.0
4.339,63.8
4.34,64.0
4.341,64.0
4.3420000000000005,64.0
4.343,64.0
4.344,64.0
4.345,63.8
4.346,64.0
4.347,64.2
4.348,64.0
4.349,64.0
4.3500000000000005,63.8
4.351,64.0
4.352,64.2
4.353,64.2
4.354,63.8
4.355,64.0
4.356,64.0
4.357,64.0
4.358,64.2
4.359,64.2
4.36,64.2
4.361,64.0
4.362,64.2
4.363,64.2
4.364,64.2
4.365,64.2
4.366,64.2
4.367,64.2
4.368,64.2
4.369,64.4
4.37,64.2
4.371,64.4
4.372,64.6
4.373,64.2
4.374,64.2
4.375,64.2
4.376,64.2
4.377,64.4
4.378,64.4
4.3790000000000004,64.6
4.38,64.4
4.381,64.6
4.382,64.6
4.383,64.4
4.384,64.2
4.385,64.4
4.386,64.6
4.3870000000000005,64.6
4.388,64.6
4.389,64.4
4.39,64.6
4.391,64.8
4.392,64.8
4.393,64.6
4.394,64.8
4.3950000000000005,64.8
4.396,64.6
4.397,64.8
4.398,64.8
4.399,64.8
4.4,64.8
4.401,65.0
4.402,64.6
4.4030000000000005,64.8
4.404,65.0
4.405,65.0
4.406,65.0
4.407,65.2
4.408,65.0
4.409,65.0
4.41,65.2
4.4110000000000005,65.2
4.412,65.2
4.413,65.2
4.414,65.4
4.415,65.0
4.416,65.2
4.417,65.2
4.418,65.4
4.4190000000000005,65.2
4.42,65.4
4.421,65.4
4.422,65.4
4.423,65.8
4.424,65.8
4.425,65.6
4.426,65.8
4.4270000000000005,65.8
4.428,65.8
4.429,65.8
4.43,65.8
4.431,66.0
4.432,66.0
4.433,66.0
4.434,65.8
4.4350000000000005,66.0
4.436,66.2
4.437,66.2
4.438,66.0
4.439,66.2
4.44,66.2
4.441,66.2
4.442,66.2
4.4430000000000005,66.2
4.444,66.2
4.445,66.2
4.446,66.6
4.447,66.4
4.448,66.4
4.449,66.4
4.45,66.6
4.4510000000000005,66.6
4.452,66.6
4.453,66.8
4.454,66.8
4.455,66.6
4.456,66.8
4.457,66.8
4.458,66.8
4.4590000000000005,66.8
4.46,67.0
4.461,67.0
4.462,67.0
4.463,67.2
4.464,67.4
4.465,67.2
4.466,67.2
4.4670000000000005,67.4
4.468,67.4
4.469,67.6
4.47,67.4
4.471,67.4
4.472,67.4
4.473,67.4
4.474,67.6
4.4750000000000005,67.6
4.476,67.6
4.477,67.6
4.478,67.8
4.479,67.8
4.48,68.0
4.481,68.0
4.482,68.0
4.483,68.2
4.484,68.0
4.485,68.2
4.486,68.0
4.487,68.4
4.488,68.0
4.489,68.2
4.49,68.4
4.491,68.4
4.492,68.4
4.493,68.6
4.494,68.6
4.495,68.6
4.496,68.6
4.497,68.8
4.498,68.8
4.499,68.8
4.5,68.8
4.501,68.8
4.502,68.8
4.503,69.0
4.5040000000000004,69.0
4.505,68.8
4.506,69.0
4.507,69.0
4.508,69.2
4.509,69.2
4.51,69.2
4.511,69.4
4.5120000000000005,69.4
4.513,69.6
4.514,69.4
4.515,69.4
4.516,69.6
4.517,69.8
4.518,69.6
4.519,69.6
4.5200000000000005,70.0
4.521,69.8
4.522,69.8
4.523,70.0
4.524,69.8
4.525,70.0
4.526,70.0
4.527,70.2
4.5280000000000005,70.0
4.529,70.0
4.53,70.4
4.531,70.2
4.532,70.4
4.533,70.4
4.534,70.4
4.535,70.6
4.5360000000000005,70.6
4.537,70.4
4.538,70.6
4.539,70.8
4.54,70.6
4.541,70.8
4.542,70.8
4.543,70.8
4.5440000000000005,70.6
4.545,71.0
4.546,70.8
4.547,70.8
4.548,71.0
4.549,71.0
4.55,71.0
4.551,71.0
4.5520000000000005,71.0
4.553,71.0
4.554,71.0
4.555,71.2
4.556,71.2
4.557,71.4
4.558,71.4
4.559,71.4
4.5600000000000005,71.4
4.561,71.6
4.562,71.4
4.563,71.4
4.564,71.4
4.565,71.4
4.566,71.6
4.567,71.6
4.5680000000000005,71.4
4.569,71.6
4.57,71.6
4.571,72.0
4.572,71.8
4.573,71.8
4.574,72.0
4.575,72.0
4.5760000000000005,72.0
4.577,72.0
4.578,71.8
4.579,71.8
4.58,72.0
4.581,72.2
4.582,72.0
4.583,72.0
4.5840000000000005,72.0
4.585,72.2
4.586,72.2
4.587,72.2
4.588,72.2
4.589,72.0
4.59,72.4
4.591,72.4
4.5920000000000005,72.4
4.593,72.4
4.594,72.2
4.595,72.4
4.596,72.2
4.597,72.4
4.598,72.6
4.599,72.6
4.6000000000000005,72.4
4.601,72.4
4.602,72.6
4.603,72.4
4.604,72.4
4.605,72.8
4.606,72.4
4.607,72.6
4.6080000000000005,72.6
4.609,72.6
4.61,72.4
4.611,72.6
4.612,72.8
4.613,72.6
4.614,72.4
4.615,72.8
4.616,72.8
4.617,72.8
4.618,72.8
4.619,72.8
4.62,72.8
4.621,72.8
4.622,72.8
4.623,72.8
4.624,72.8
4.625,72.8
4.626,72.8
4.627,73.0
4.628,72.6
4.6290000000000004,73.0
4.63,72.8
4.631,73.0
4.632,72.8
4.633,73.0
4.634,73.0
4.635,73.0
4.636,72.8
4.6370000000000005,73.0
4.638,73.0
4.639,73.0
4.64,73.0
4.641,72.8
4.642,72.6
4.643,72.8
4.644,73.0
4.6450000000000005,72.8
4.646,72.8
4.647,72.8
4.648,72.8
4.649,72.8
4.65,72.8
4.651,72.6
4.652,72.6
4.6530000000000005,72.8
4.654,72.6
4.655,73.0
4.656,73.0
4.657,72.8
4.658,72.6
4.659,72.6
4.66,72.8
4.6610000000000005,72.8
4.662,72.8
4.663,72.6
4.664,72.6
4.665,72.8
4.666,72.4
4.667,72.4
4.668,72.8
4.6690000000000005,72.8
4.67,72.6
4.671,72.6
4.672,72.4
4.673,72.4
4.674,72.6
4.675,72.6
4.676,72.8
4.6770000000000005,72.2
4.678,72.4
4.679,72.4
4.68,72.4
4.681,72.4
4.682,72.2
4.683,72.4
4.684,72.2
4.6850000000000005,72.2
4.686,72.0
4.687,72.4
4.688,72.2
4.689,72.4
4.69,72.2
4.691,72.2
4.692,72.2
4.6930000000000005,72.2
4.694,72.0
4.695,72.0
4.696,72.0
4.697,72.2
4.698,72.0
4.699,71.8
4.7,71.8
4.7010000000000005,72.0
4.702,71.8
4.703,71.8
4.704,72.0
4.705,71.8
4.706,71.8
4.707,72.0
4.708,71.6
4.7090000000000005,71.6
4.71,71.8
4.711,71.8
4.712,71.4
4.713,71.4
4.714,71.6
4.715,71.6
4.716,71.4
4.7170000000000005,71.6
4.718,71.4
4.719,71.2
4.72,71.4
4.721,71.4
4.722,71.2
4.723,71.2
4.724,71.2
4.7250000000000005,71.2
4.726,71.0
4.727,71.0
4.728,71.0
4.729,71.0
4.73,71.0
4.731,70.8
4.732,71.0
4.7330000000000005,70.8
4.734,70.8
4.735,70.6
4.736,70.8
4.737,70.8
4.738,70.8
4.739,70.6
4.74,70.4
4.741,70.4
4.742,70.6
4.743,70.6
4.744,70.4
4.745,70.2
4.746,70.4
4.747,70.4
4.748,70.4
4.749,70.4
4.75,70.2
4.751,70.2
4.752,69.8
4.753,69.8
4.7540000000000004,70.0
4.755,70.0
4.756,69.8
4.757,69.6
4.758,69.8
4.759,69.8
4.76,69.8
4.761,69.8
4.7620000000000005,69.4
4.763,69.6
4.764,69.4
4.765,69.6
4.766,69.2
4.767,69.4
4.768,69.2
4.769,69.2
4.7700000000000005,69.0
4.771,69.2
4.772,69.2
4.773,69.0
4.774,69.0
4.775,69.0
4.776,69.0
4.777,68.8
4.7780000000000005,68.8
4.779,68.6
4.78,68.8
4.781,68.4
4.782,68.4
4.783,68.4
4.784,68.4
4.785,68.4
4.7860000000000005,68.4
4.787,68.4
4.788,68.4
4.789,68.2
4.79,68.0
4.791,68.2
4.792,68.0
4.793,68.0
4.7940000000000005,68.2
4.795,68.2
4.796,67.8
4.797,68.0
4.798,67.8
4.799,67.8
4.8,67.8
4.801,67.8
4.8020000000000005,67.6
4.803,67.6
4.804,67.6
4.805,67.6
4.806,67.4
4.807,67.4
4.808,67.4
4.809,67.4
4.8100000000000005,67.2
4.811,67.2
4.812,67.2
4.813,67.0
4.814,67.0
4.815,66.8
4.816,67.0
4.817,66.8
4.8180000000000005,66.8
4.819,66.8
4.82,66.8
4.821,66.6
4.822,66.8
4.823,66.6
4.824,66.8
4.825,66.6
4.8260000000000005,66.4
4.827,66.4
4.828,66.4
4.829,66.4
4.83,66.2
4.831,66.4
4.832,66.2
4.833,66.2
4.8340000000000005,66.2
4.835,66.0
4.836,66.2
4.837,66.0
4.838,66.0
4.839,66.0
4.84,65.8
4.841,65.6
4.8420000000000005,66.0
4.843,65.8
4.844,65.6
4.845,65.6
4.846,65.8
4.847,65.8
4.848,65.6
4.849,65.6
4.8500000000000005,65.6
4.851,65.4
4.852,65.4
4.853,65.4
4.854,65.4
4.855,65.6
4.856,65.2
4.857,65.4
4.8580000000000005,65.2
4.859,65.2
4.86,65.2
4.861,65.2
4.862,65.2
4.863,65.0
4.864,65.0
4.865,65.0
4.866,65.0
4.867,64.8
4.868,65.0
4.869,64.6
4.87,65.0
4.871,64.8
4.872,64.8
4.873,64.8
4.874,64.8
4.875,64.4
4.876,64.6
4.877,64.6
4.878,64.8
4.8790000000000004,64.6
4.88,64.4
4.881,64.6
4.882,64.6
4.883,64.4
4.884,64.4
4.885,64.4
4.886,64.4
4.8870000000000005,64.4
4.888,64.4
4.889,64.4
4.89,64.4
4.891,64.2
4.892,64.4
4.893,64.2
4.894,64.4
4.8950000000000005,64.2
4.896,64.2
4.897,64.0
4.898,64.2
4.899,64.2
4.9,64.0
4.901,64.0
4.902,64.2
4.9030000000000005,64.0
4.904,63.8
4.905,64.2
4.906,64.2
4.907,64.0
4.908,64.0
4.909,64.0
4.91,63.8
4.9110000000000005,64.0
4.912,64.0
4.913,64.2
4.914,64.0
4.915,63.8
4.916,64.0
4.917,63.8
4.918,64.0
4.9190000000000005,64.0
4.92,63.8
4.921,64.0
4.922,64.0
4.923,63.8
4.924,63.8
4.925,63.6
4.926,63.8
4.9270000000000005,64.0
4.928,64.0
4.929,64.0
4.93,63.8
4.931,63.8
4.932,63.8
4.933,63.8
4.934,64.0
4.9350000000000005,64.0
4.936,63.8
4.937,63.8
4.938,64.0
4.939,63.8
4.94,63.8
4.941,63.8
4.942,63.8
4.9430000000000005,63.8
4.944,63.8
4.945,64.2
4.946,63.8
4.947,64.0
4.948,63.8
4.949,64.0
4.95,63.8
4.9510000000000005,63.8
4.952,63.8
4.953,64.2
4.954,64.0
4.955,64.0
4.956,63.8
4.957,63.8
4.958,64.0
4.9590000000000005,63.8
4.96,64.0
4.961,64.0
4.962,64.0
4.963,64.0
4.964,64.0
4.965,64.2
4.966,64.2
4.9670000000000005,64.2
4.968,63.8
4.969,64.0
4.97,64.0
4.971,64.2
4.972,64.2
4.973,64.2
4.974,63.8
4.9750000000000005,64.0
4.976,64.2
4.977,64.4
4.978,64.0
4.979,64.2
4.98,64.2
4.981,64.2
4.982,64.2
4.9830000000000005,64.0
4.984,64.2
4.985,64.4
4.986,64.4
4.987,64.6
4.988,64.6
4.989,64.2
4.99,64.2
4.9910000000000005,64.6
4.992,64.4
4.993,64.4
4.994,64.4
4.995,64.6
4.996,64.4
4.997,64.4
4.998,64.8
4.999,64.6
5.0,64.4
5.001,64.6
5.002,64.4
5.003,64.6
5.0040000000000004,64.8
5.005,64.6
5.006,64.6
5.007,64.8
5.008,64.8
5.009,64.6
5.01,64.6
5.011,64.6
5.0120000000000005,64.8
5.013,64.8
5.014,65.0
5.015,65.0
5.016,64.8
5.017,65.0
5.018,65.0
5.019,65.0
5.0200000000000005,65.0
5.021,65.2
5.022,65.2
5.023,65.2
5.024,64.8
5.025,65.2
5.026,65.2
5.027,65.4
5.0280000000000005,65.4
5.029,65.2
5.03,65.4
5.031,65.4
5.032,65.4
5.033,65.4
5.034,65.4
5.035,65.8
5.0360000000000005,65.6
5.037,65.4
5.038,65.8
5.039,65.6
5.04,65.8
5.041,65.8
5.042,65.6
5.043,65.8
5.0440000000000005,65.8
5.045,65.8
5.046,66.0
5.047,66.0
5.048,65.8
5.049,66.0
5.05,66.0
5.051,66.2
5.0520000000000005,66.2
5.053,66.2
5.054,66.0
5.055,66.2
5.056,66.2
5.057,66.4
5.058,66.4
5.059,66.4
5.0600000000000005,66.4
5.061,66.4
5.062,66.4
5.063,66.6
5.064,66.6
5.065,66.6
5.066,66.6
5.067,66.6
5.0680000000000005,66.8
5.069,66.8
5.07,66.8
5.071,67.0
5.072,67.0
5.073,67.0
5.074,67.0
5.075,67.0
5.0760000000000005,67.0
5.077,67.2
5.078,67.2
5.079,67.4
5.08,67.2
5.081,67.4
5.082,67.4
5.083,67.2
5.0840000000000005,67.2
5.085,67.4
5.086,67.6
5.087,67.4
5.088,67.6
5.089,67.6
5.09,67.8
5.091,67.8
5.0920000000000005,67.8
5.093,68.0
5.094,67.8
5.095,67.8
5.096,68.2
5.097,68.0
5.098,68.0
5.099,68.2
5.1000000000000005,68.0
5.101,68.2
5.102,68.2
5.103,68.4
5.104,68.4
5.105,68.4
5.106,68.4
5.107,68.4
5.1080000000000005,68.6
5.109,68.6
5.11,68.6
5.111,68.6
5.112,69.0
5.113,68.8
5.114,69.0
5.115,69.0
5.1160000000000005,68.8
5.117,69.0
5.118,69.0
5.119,69.0
5.12,69.2
5.121,69.2
5.122,69.2
5.123,69.2
5.124,69.2
5.125,69.4
5.126,69.4
5.127,69.4
5.128,69.4
5.1290000000000004,69.6
5.13,69.8
5.131,69.6
5.132,70.0
5.133,69.8
5.134,70.0
5.135,69.8
5.136,69.8
5.1370000000000005,69.8
5.138,69.8
5.139,70.2
5.14,70.2
5.141,70.2
5.142,70.2
5.143,70.4
5.144,70.4
5.1450000000000005,70.4
5.146,70.2
5.147,70.2
5.148,70.2
5.149,70.4
5.15,70.6
5.151,70.6
5.152,70.8
5.1530000000000005,70.6
5.154,70.6
5.155,70.8
5.156,70.8
5.157,70.8
5.158,70.8
5.159,71.0
5.16,70.6
5.1610000000000005,70.8
5.162,71.0
5.163,71.0
5.164,71.2
5.165,71.0
5.166,71.0
5.167,71.0
5.168,71.2
5.1690000000000005,71.4
5.17,71.4
5.171,71.4
5.172,71.2
5.173,71.4
5.174,71.4
5.175,71.6
5.176,71.4
5.1770000000000005,71.4
5.178,71.6
5.179,71.4
5.18,71.4
5.181,71.4
5.182,71.6
5.183,71.8
5.184,71.6
5.1850000000000005,72.0
5.186,71.8
5.187,72.0
5.188,71.8
5.189,72.0
5.19,71.8
5.191,72.0
5.192,72.0
5.1930000000000005,72.0
5.194,72.0
5.195,72.0
5.196,72.0
5.197,72.0
5.198,71.8
5.199,72.2
5.2,72.0
5.2010000000000005,72.2
5.202,72.4
5.203,72.2
5.204,72.2
5.205,72.4
5.206,72.4
5.207,72.2
5.208,72.2
5.2090000000000005,72.4
5.21,72.6
5.211,72.4
5.212,72.4
5.213,72.6
5.214,72.4
5.215,72.6
5.216,72.6
5.2170000000000005,72.6
5.218,72.4
5.219,72.6
5.22,72.6
5.221,72.6
5.222,72.2
5.223,72.8
5.224,72.6
5.2250000000000005,72.6
5.226,72.6
5.227,72.8
5.228,72.8
5.229,72.6
5.23,72.6
5.231,72.8
5.232,72.8
5.2330000000000005,72.8
5.234,72.8
5.235,72.6
5.236,72.6
5.237,72.6
5.238,73.0
5.239,73.0
5.24,72.6
5.2410000000000005,72.8
5.242,72.8
5.243,72.8
5.244,73.0
5.245,72.6
5.246,72.6
5.247,72.6
5.248,72.8
5.249,73.0
5.25,72.8
5.251,72.8
5.252,72.8
5.253,72.8
5.2540000000000004,72.8
5.255,73.0
5.256,73.0
5.257,72.8
5.258,72.8
5.259,72.8
5.26,72.8
5.261,72.6
5.2620000000000005,73.0
5.263,72.6
5.264,73.0
5.265,72.6
5.266,72.8
5.267,72.6
5.268,73.0
5.269,72.6
5.2700000000000005,72.8
5.271,72.6
5.272,72.6
5.273,72.6
5.274,72.6
5.275,72.8
5.276,72.6
5.277,72.8
5.2780000000000005,72.6
5.279,72.6
5.28,72.4
5.281,72.6
5.282,72.6
5.283,72.6
5.284,72.8
5.285,72.6
5.2860000000000005,72.6
5.287,72.2
5.288,72.6
5.289,72.4
5.29,72.6
5.291,72.4
5.292,72.4
5.293,72.2
5.2940000000000005,72.4
5.295,72.4
5.296,72.2
5.297,72.2
5.298,72.2
5.299,72.2
5.3,72.2
5.301,72.2
5.3020000000000005,72.2
5.303,72.0
5.304,72.2
5.305,72.0
5.306,72.0
5.307,72.0
5.308,72.2
5.309,72.2
5.3100000000000005,72.0
5.311,72.0
5.312,72.0
5.313,71.6
5.314,72.0
5.315,72.0
5.316,72.0
5.317,72.0
5.3180000000000005,72.0
5.319,71.8
5.32,72.0
5.321,71.6
5.322,71.8
5.323,71.4
5.324,71.6
5.325,71.6
5.3260000000000005,71.6
5.327,71.6
5.328,71.4
5.329,71.4
5.33,71.6
5.331,71.6
5.332,71.4
5.333,71.2
5.3340000000000005,71.2
5.335,71.0
5.336,71.0
5.337,71.4
5.338,71.2
5.339,71.0
5.34,71.0
5.341,71.0
5.3420000000000005,70.8
5.343,71.0
5.344,70.8
5.345,70.8
5.346,70.8
5.347,70.8
5.348,71.0
5.349,71.0
5.3500000000000005,70.8
5.351,70.4
5.352,70.6
5.353,70.6
5.354,70.6
5.355,70.6
5.356,70.4
5.357,70.6
5.3580000000000005,70.4
5.359,70.2
5.36,70.2
5.361,70.4
5.362,70.2
5.363,70.2
5.364,70.0
5.365,70.0
5.3660000000000005,69.8
5.367,70.2
5.368,70.2
5.369,69.8
5.37,69.8
5.371,69.8
5.372,69.6
5.373,69.8
5.3740000000000006,69.6
5.375,69.6
5.376,69.6
5.377,69.4
5.378,69.4
5.3790000000000004,69.4
5.38,69.2
5.381,69.2
5.382,69.2
5.383,69.2
5.384,69.0
5.385,69.2
5.386,69.0
5.3870000000000005,69.2
5.388,69.0
5.389,68.8
5.39,68.8
5.391,68.8
5.392,68.8
5.393,68.6
5.394,68.4
5.3950000000000005,68.6
5.396,68.8
5.397,68.4
5.398,68.6
5.399,68.4
5.4,68.4
5.401,68.2
5.402,68.4
5.4030000000000005,68.2
5.404,68.2
5.405,68.0
5.406,68.2
5.407,68.0
5.408,68.0
5.409,68.0
5.41,68.0
5.4110000000000005,68.0
5.412,67.8
5.413,67.8
5.414,67.8
5.415,67.8
5.416,67.6
5.417,67.8
5.418,67.4
5.4190000000000005,67.4
5.42,67.4
5.421,67.4
5.422,67.2
5.423,67.2
5.424,67.4
5.425,67.4
5.426,67.2
5.4270000000000005,67.2
5.428,67.0
5.429,67.0
5.43,67.0
5.431,66.8
5.432,66.8
5.433,66.8
5.434,66.8
5.4350000000000005,66.6
5.436,66.8
5.437,66.6
5.438,66.6
5.439,66.6
5.44,66.4
5.441,66.4
5.442,66.4
5.4430000000000005,66.4
5.444,66.2
5.445,66.0
5.446,66.2
5.447,66.2
5.448,66.2
5.449,66.0
5.45,66.0
5.4510000000000005,66.0
5.452,66.0
5.453,66.0
5.454,66.0
5.455,65.8
5.456,66.0
5.457,65.8
5.458,65.6
5.4590000000000005,65.8
5.46,65.8
5.461,65.6
5.462,65.8
5.463,65.4
5.464,65.4
5.465,65.2
5.466,65.6
5.4670000000000005,65.2
5.468,65.4
5.469,65.4
5.47,65.2
5.471,65.2
5.472,65.2
5.473,65.4
5.474,65.0
5.4750000000000005,65.0
5.476,65.0
5.477,65.0
5.478,64.8
5.479,65.2
5.48,65.0
5.481,65.0
5.482,64.8
5.4830000000000005,65.0
5.484,65.0
5.485,64.6
5.486,64.8
5.487,64.8
5.488,64.8
5.489,64.6
5.49,64.6
5.4910000000000005,64.6
5.492,64.4
5.493,64.6
5.494,64.4
5.495,64.4
5.496,64.6
5.497,64.4
5.498,64.4
5.4990000000000006,64.4
5.5,64.4
5.501,64.4
5.502,64.4
5.503,64.4
5.5040000000000004,64.0
5.505,64.2
5.506,64.2
5.507,64.2
5.508,64.2
5.509,64.2
5.51,64.2
5.511,64.2
5.5120000000000005,64.4
5.513,64.2
5.514,64.0
5.515,64.2
5.516,64.2
5.517,64.2
5.518,64.2
5.519,63.8
5.5200000000000005,64.2
5.521,64.0
5.522,64.2
5.523,64.0
5.524,64.2
5.525,64.2
5.526,63.8
5.527,63.8
5.5280000000000005,64.0
5.529,64.0
5.53,64.0
5.531,64.0
5.532,63.8
5.533,64.0
5.534,63.6
5.535,63.8
5.5360000000000005,64.0
5.537,63.6
5.538,63.8
5.539,64.0
5.54,63.8
5.541,64.0
5.542,63.8
5.543,64.0
5.5440000000000005,64.0
5.545,63.8
5.546,64.0
5.547,63.8
5.548,64.0
5.549,63.8
5.55,63.8
5.551,64.0
5.5520000000000005,63.8
5.553,63.8
5.554,63.6
5.555,63.8
5.556,63.8
5.557,63.8
5.558,63.8
5.559,64.2
5.5600000000000005,64.0
5.561,64.0
5.562,63.6
5.563,63.8
5.564,63.8
5.565,63.8
5.566,64.2
5.567,64.0
5.5680000000000005,63.8
5.569,64.0
5.57,64.0
5.571,64.0
5.572,64.0
5.573,63.8
5.574,64.0
5.575,64.0
5.5760000000000005,64.0
5.577,63.8
5.578,64.0
5.579,64.2
5.58,64.0
5.581,64.2
5.582,64.2
5.583,64.0
5.5840000000000005,64.0
5.585,64.2
5.586,64.2
5.587,64.4
5.588,64.2
5.589,64.2
5.59,64.0
5.591,64.2
5.5920000000000005,64.2
5.593,64.2
5.594,64.2
5.595,64.2
5.596,64.0
5.597,64.4
5.598,64.2
5.599,64.4
5.6000000000000005,64.4
5.601,64.6
5.602,64.4
5.603,64.2
5.604,64.2
5.605,64.4
5.606,64.4
5.607,64.2
5.6080000000000005,64.4
5.609,64.6
5.61,64.4
5.611,64.8
5.612,64.6
5.613,64.6
5.614,64.6
5.615,64.6
5.6160000000000005,64.6
5.617,64.8
5.618,64.6
5.619,64.8
5.62,64.6
5.621,64.8
5.622,64.8
5.623,64.8
5.6240000000000006,64.8
5.625,64.8
5.626,64.6
5.627,64.8
5.628,65.0
5.6290000000000004,65.0
5.63,65.0
5.631,65.0
5.632,65.0
5.633,64.8
5.634,65.0
5.635,65.2
5.636,65.0
5.6370000000000005,65.0
5.638,65.2
5.639,65.2
5.64,65.2
5.641,65.2
5.642,65.2
5.643,65.2
5.644,65.2
5.6450000000000005,65.4
5.646,65.4
5.647,65.4
5.648,65.4
5.649,65.6
5.65,65.4
5.651,65.6
5.652,65.8
5.6530000000000005,65.6
5.654,65.8
5.655,65.6
5.656,65.8
5.657,65.8
5.658,65.8
5.659,66.0
5.66,66.0
5.6610000000000005,65.8
5.662,65.8
5.663,66.0
5.664,66.2
5.665,66.2
5.666,66.2
5.667,66.2
5.668,66.4
5.6690000000000005,66.2
5.67,66.4
5.671,66.2
5.672,66.2
5.673,66.4
5.674,66.4
5.675,66.4
5.676,66.4
5.6770000000000005,66.6
5.678,66.6
5.679,66.6
5.68,66.6
5.681,66.6
5.682,67.0
5.683,66.6
5.684,67.0
5.6850000000000005,66.8
5.686,66.8
5.687,66.8
5.688,67.0
5.689,67.0
5.69,67.2
5.691,67.2
5.692,67.2
5.6930000000000005,67.2
5.694,67.2
5.695,67.2
5.696,67.2
5.697,67.6
5.698,67.4
5.699,67.2
5.7,67.6
5.7010000000000005,67.6
5.702,67.6
5.703,67.8
5.704,67.8
5.705,67.8
5.706,67.8
5.707,67.8
5.708,68.0
5.7090000000000005,68.0
5.71,68.2
5.711,68.0
5.712,68.2
5.713,68.2
5.714,68.2
5.715,68.2
5.716,68.2
5.7170000000000005,68.2
5.718,68.4
5.719,68.4
5.72,68.4
5.721,68.6
5.722,68.6
5.723,68.6
5.724,68.8
5.7250000000000005,68.6
5.726,68.8
5.727,68.8
5.728,68.8
5.729,69.0
5.73,68.8
5.731,69.0
5.732,69.0
5.7330000000000005,69.0
5.734,69.2
5.735,69.2
5.736,69.2
5.737,69.4
5.738,69.2
5.739,69.4
5.74,69.4
5.7410000000000005,69.4
5.742,69.4
5.743,69.4
5.744,69.8
5.745,69.8
5.746,69.8
5.747,69.8
5.748,70.0
5.7490000000000006,70.0
5.75,70.0
5.751,70.0
5.752,70.0
5.753,70.4
5.7540000000000004,70.0
5.755,70.0
5.756,70.2
5.757000000000001,70.4
5.758,70.4
5.759,70.4
5.76,70.2
5.761,70.4
5.7620000000000005,70.4
5.763,70.6
5.764,70.6
5.765,70.8
5.766,70.4
5.767,70.6
5.768,70.8
5.769,70.6
5.7700000000000005,70.6
5.771,70.8
5.772,70.8
5.773,70.8
5.774,70.8
5.775,71.0
5.776,71.0
5.777,71.0
5.7780000000000005,71.0
5.779,71.2
5.78,71.2
5.781,71.0
5.782,71.2
5.783,71.4
5.784,71.4
5.785,71.4
5.7860000000000005,71.2
5.787,71.6
5.788,71.2
5.789,71.4
5.79,71.4
5.791,71.4
5.792,71.4
5.793,71.8
5.7940000000000005,71.8
5.795,71.4
5.796,71.8
5.797,71.6
5.798,71.6
5.799,72.0
5.8,72.0
5.801,71.8
5.8020000000000005,71.8
5.803,71.8
5.804,72.0
5.805,71.8
5.806,72.2
5.807,72.0
5.808,72.2
5.809,72.2
5.8100000000000005,72.2
5.811,72.0
5.812,72.2
5.813,72.4
5.814,72.0
5.815,72.2
5.816,72.0
5.817,72.2
5.8180000000000005,72.2
5.819,72.4
5.82,72.2
5.821,72.4
5.822,72.4
5.823,72.4
5.824,72.4
5.825,72.4
5.8260000000000005,72.4
5.827,72.6
5.828,72.6
5.829,72.4
5.83,72.4
5.831,72.4
5.832,72.6
5.833,72.6
5.8340000000000005,72.4
5.835,72.6
5.836,72.6
5.837,72.8
5.838,72.8
5.839,72.6
5.84,72.8
5.841,72.6
5.8420000000000005,72.8
5.843,72.8
5.844,72.8
5.845,72.8
5.846,72.8
5.847,72.8
5.848,72.8
5.849,72.8
5.8500000000000005,72.8
5.851,72.6
5.852,72.8
5.853,72.8
5.854,73.0
5.855,72.6
5.856,72.8
5.857,72.8
5.8580000000000005,72.8
5.859,72.6
5.86,72.8
5.861,72.8
5.862,72.8
5.863,72.8
5.864,72.8
5.865,72.8
5.8660000000000005,72.8
5.867,73.0
5.868,72.8
5.869,72.8
5.87,72.6
5.871,72.8
5.872,72.8
5.873,72.6
5.8740000000000006,72.6
5.875,73.0
5.876,73.0
5.877,72.8
5.878,72.8
5.8790000000000004,72.8
5.88,72.8
5.881,72.6
5.882000000000001,72.8
5.883,72.8
5.884,72.8
5.885,72.8
5.886,72.8
5.8870000000000005,72.6
5.888,72.6
5.889,72.6
5.89,72.8
5.891,72.4
5.892,72.6
5.893,72.6
5.894,72.6
5.8950000000000005,72.6
5.896,72.6
5.897,72.6
5.898,72.6
5.899,72.6
5.9,72.4
5.901,72.4
5.902,72.4
5.9030000000000005,72.6
5.904,72.4
5.905,72.6
5.906,72.6
5.907,72.4
5.908,72.2
5.909,72.4
5.91,72.4
5.9110000000000005,72.4
5.912,72.2
5.913,72.4
5.914,72.2
5.915,72.0
5.916,72.4
5.917,72.2
5.918,72.2
5.9190000000000005,72.0
5.92,72.2
5.921,72.0
5.922,72.2
5.923,72.0
5.924,72.0
5.925,72.0
5.926,72.0
5.9270000000000005,72.0
5.928,71.8
5.929,71.8
5.93,71.8
5.931,72.0
5.932,72.0
5.933,71.8
5.934,71.8
5.9350000000000005,71.8
5.936,71.6
5.937,72.0
5.938,71.4
5.939,71.4
5.94,71.4
5.941,71.2
5.942,71.4
5.9430000000000005,71.6
5.944,71.6
5.945,71.4
5.946,71.2
5.947,71.4
5.948,71.4
5.949,71.4
5.95,71.2
5.9510000000000005,71.2
5.952,71.0
5.953,71.2
5.954,71.0
5.955,71.0
5.956,71.0
5.957,71.0
5.958,70.8
5.9590000000000005,70.8
5.96,70.8
5.961,70.8
5.962,71.0
5.963,70.8
5.964,70.6
5.965,70.6
5.966,70.6
5.9670000000000005,70.6
5.968,70.2
5.969,70.4
5.97,70.4
5.971,70.4
5.972,70.2
5.973,70.4
5.974,70.4
5.9750000000000005,70.2
5.976,70.4
5.977,70.0
5.978,70.2
5.979,70.0
5.98,70.0
5.981,70.0
5.982,69.6
5.9830000000000005,70.0
5.984,69.8
5.985,69.8
5.986,69.6
5.987,69.4
5.988,69.8
5.989,69.6
5.99,69.4
5.9910000000000005,69.4
5.992,69.4
5.993,69.2
5.994,69.4
5.995,69.2
5.996,69.2
5.997,69.2
5.998,69.2
5.9990000000000006,69.0
6.0,69.2
6.001,69.2
6.002,69.0
6.003,69.0
6.0040000000000004,68.8
6.005,68.8
6.006,68.6
6.007000000000001,68.6
6.008,68.8
6.009,68.6
6.01,68.4
6.011,68.4
6.0120000000000005,68.4
6.013,68.4
6.014,68.4
6.015000000000001,68.4
6.016,68.2
6.017,68.2
6.018,68.2
6.019,68.2
6.0200000000000005,68.2
6.021,68.2
6.022,68.0
6.023,68.0
6.024,67.8
6.025,67.8
6.026,67.8
6.027,67.6
6.0280000000000005,67.6
6.029,67.6
6.03,67.6
6.031,67.4
6.032,67.6
6.033,67.6
6.034,67.4
6.035,67.4
6.0360000000000005,67.2
6.037,67.2
6.038,67.2
6.039,67.2
6.04,67.0
6.041,67.0
6.042,67.2
6.043,67.0
6.0440000000000005,66.8
6.045,66.8
6.046,67.0
6.047,66.6
6.048,66.6
6.049,66.8
6.05,66.6
6.051,66.6
6.0520000000000005,66.4
6.053,66.6
6.054,66.4
6.055,66.6
6.056,66.4
6.057,66.2
6.058,66.2
6.059,66.2
6.0600000000000005,66.4
6.061,66.4
6.062,66.2
6.063,66.2
6.064,65.8
6.065,66.0
6.066,66.0
6.067,66.0
6.0680000000000005,65.8
6.069,65.8
6.07,65.6
6.071,65.8
6.072,65.6
6.073,65.8
6.074,65.8
6.075,65.8
6.0760000000000005,65.8
6.077,65.6
6.078,65.4
6.079,65.4
6.08,65.4
6.081,65.2
6.082,65.4
6.083,65.2
6.0840000000000005,65.4
6.085,65.0
6.086,65.2
6.087,65.2
6.088,65.2
6.089,65.0
6.09,65.0
6.091,64.8
6.0920000000000005,64.8
6.093,65.0
6.094,65.0
6.095,64.8
6.096,64.8
6.097,65.0
6.098,64.6
6.099,64.6
6.1000000000000005,64.6
6.101,64.6
6.102,64.6
6.103,64.6
6.104,64.8
6.105,64.4
6.106,64.6
6.107,64.8
6.1080000000000005,64.4
6.109,64.4
6.11,64.4
6.111,64.4
6.112,64.2
6.113,64.2
6.114,64.4
6.115,64.4
6.1160000000000005,64.4
6.117,64.2
6.118,64.4
6.119,64.4
6.12,64.4
6.121,64.0
6.122,64.2
6.123,64.2
6.1240000000000006,64.2
6.125,64.2
6.126,64.2
6.127,64.0
6.128,64.0
6.1290000000000004,64.2
6.13,64.2
6.131,64.0
6.132000000000001,64.0
6.133,64.2
6.134,64.2
6.135,64.2
6.136,63.8
6.1370000000000005,64.0
6.138,64.0
6.139,64.0
6.140000000000001,64.0
6.141,64.2
6.142,64.0
6.143,63.8
6.144,63.8
6.1450000000000005,64.0
6.146,64.0
6.147,63.8
6.148,63.8
6.149,64.0
6.15,63.8
6.151,63.8
6.152,63.8
6.1530000000000005,64.0
6.154,63.8
6.155,63.8
6.156,63.6
6.157,64.0
6.158,63.8
6.159,64.0
6.16,63.8
6.1610000000000005,64.0
6.162,63.8
6.163,63.6
6.164,63.8
6.165,64.0
6.166,63.8
6.167,63.8
6.168,64.0
6.1690000000000005,63.8
6.17,64.0
6.171,63.8
6.172,63.8
6.173,63.8
6.174,63.8
6.175,64.0
6.176,63.8
6.1770000000000005,63.8
6.178,63.8
6.179,64.0
6.18,63.6
6.181,64.0
6.182,64.0
6.183,64.0
6.184,64.0
6.1850000000000005,63.8
6.186,64.0
6.187,63.8
6.188,64.0
6.189,64.2
6.19,64.0
6.191,63.8
6.192,64.2
6.1930000000000005,64.2
6.194,64.0
6.195,64.0
6.196,64.2
6.197,64.0
6.198,64.0
6.199,64.2
6.2,64.2
6.2010000000000005,63.8
6.202,64.2
6.203,64.2
6.204,64.2
6.205,64.2
6.206,64.4
6.207,64.2
6.208,64.2
6.2090000000000005,64.2
6.21,64.2
6.211,64.2
6.212,64.2
6.213,64.4
6.214,64.2
6.215,64.4
6.216,64.4
6.2170000000000005,64.4
6.218,64.4
6.219,64.4
6.22,64.4
6.221,64.4
6.222,64.6
6.223,64.4
6.224,64.4
6.2250000000000005,64.6
6.226,64.2
6.227,64.4
6.228,64.6
6.229,64.6
6.23,64.4
6.231,64.6
6.232,64.8
6.2330000000000005,64.6
6.234,64.8
6.235,64.6
6.236,64.8
6.237,64.8
6.238,64.8
6.239,64.8
6.24,65.0
6.2410000000000005,65.0
6.242,64.8
6.243,65.0
6.244,65.2
6.245,65.2
6.246,65.0
6.247,65.0
6.248,65.2
6.2490000000000006,65.0
6.25,65.0
6.251,65.0
6.252,65.4
6.253,65.2
6.2540000000000004,65.2
6.255,65.0
6.256,65.2
6.257000000000001,65.4
6.258,65.4
6.259,65.4
6.26,65.6
6.261,65.2
6.2620000000000005,65.4
6.263,65.6
6.264,65.8
6.265000000000001,65.6
6.266,65.6
6.267,65.8
6.268,65.6
6.269,65.6
6.2700000000000005,65.6
6.271,65.8
6.272,66.0
6.273,66.0
6.274,66.0
6.275,66.0
6.276,66.0
6.277,66.0
6.2780000000000005,66.2
6.279,66.0
6.28,66.2
6.281,66.2
6.282,66.4
6.283,66.2
6.284,66.4
6.285,66.4
6.2860000000000005,66.2
6.287,66.6
6.288,66.6
6.289,66.6
6.29,66.6
6.291,66.6
6.292,66.6
6.293,66.8
6.2940000000000005,66.6
6.295,66.8
6.296,66.6
6.297,66.8
6.298,66.8
6.299,67.0
6.3,67.0
6.301,67.0
6.3020000000000005,67.2
6.303,67.0
6.304,67.0
6.305,67.2
6.306,67.2
6.307,67.4
6.308,67.2
6.309,67.6
6.3100000000000005,67.4
6.311,67.4
6.312,67.4
6.313,67.6
6.314,67.4
6.315,67.6
6.316,67.8
6.317,67.8
6.3180000000000005,67.8
6.319,67.8
6.32,68.0
6.321,67.8
6.322,68.0
6.323,68.2
6.324,68.0
6.325,68.0
6.3260000000000005,68.0
6.327,68.2
6.328,68.2
6.329,68.2
6.33,68.4
6.331,68.4
6.332,68.4
6.333,68.4
6.3340000000000005,68.6
6.335,68.4
6.336,68.6
6.337,68.6
6.338,68.8
6.339,68.6
6.34,68.8
6.341,68.8
6.3420000000000005,69.0
6.343,69.0
6.344,69.0
6.345,69.0
6.346,69.2
6.347,69.2
6.348,69.2
6.349,69.2
6.3500000000000005,69.2
6.351,69.2
6.352,69.2
6.353,69.6
6.354,69.2
6.355,69.4
6.356,69.6
6.357,69.8
6.3580000000000005,69.8
6.359,69.6
6.36,69.8
6.361,69.8
6.362,69.8
6.363,70.0
6.364,70.0
6.365,69.8
6.3660000000000005,70.0
6.367,70.0
6.368,70.2
6.369,70.2
6.37,70.4
6.371,70.4
6.372,70.4
6.373,70.4
6.3740000000000006,70.4
6.375,70.6
6.376,70.4
6.377,70.6
6.378,70.4
6.3790000000000004,70.6
6.38,70.6
6.381,70.8
6.382000000000001,70.6
6.383,70.6
6.384,71.0
6.385,70.6
6.386,70.8
6.3870000000000005,71.0
6.388,70.8
6.389,70.8
6.390000000000001,71.2
6.391,71.2
6.392,71.0
6.393,71.2
6.394,71.2
6.3950000000000005,71.0
6.396,71.0
6.397,71.4
6.398000000000001,71.2
6.399,71.0
6.4,71.2
6.401,71.4
6.402,71.4
6.4030000000000005,71.4
6.404,71.6
6.405,71.6
6.406,71.6
6.407,71.8
6.408,71.6
6.409,71.8
6.41,71.4
6.4110000000000005,72.0
6.412,71.8
6.413,71.6
6.414,71.8
6.415,72.0
6.416,72.0
6.417,72.0
6.418,71.8
6.4190000000000005,72.2
6.42,72.0
6.421,72.0
6.422,72.2
6.423,72.0
6.424,72.0
6.425,71.8
6.426,72.2
6.4270000000000005,72.2
6.428,72.2
6.429,72.2
6.43,72.4
6.431,72.4
6.432,72.4
6.433,72.2
6.434,72.2
6.4350000000000005,72.4
6.436,72.4
6.437,72.4
6.438,72.4
6.439,72.4
6.44,72.4
6.441,72.4
6.442,72.6
6.4430000000000005,72.8
6.444,72.6
6.445,72.4
6.446,72.6
6.447,72.6
6.448,72.6
6.449,72.8
6.45,72.6
6.4510000000000005,72.8
6.452,72.6
6.453,72.4
6.454,72.4
6.455,72.6
6.456,72.8
6.457,72.8
6.458,72.8
6.4590000000000005,72.6
6.46,72.6
6.461,72.8
6.462,73.0
6.463,72.6
6.464,72.6
6.465,72.8
6.466,72.8
6.4670000000000005,72.6
6.468,72.6
6.469,72.8
6.47,73.0
6.471,72.8
6.472,73.0
6.473,72.8
6.474,72.8
6.4750000000000005,72.6
6.476,72.8
6.477,72.8
6.478,73.0
6.479,73.0
6.48,72.8
6.481,72.8
6.482,72.6
6.4830000000000005,73.0
6.484,72.6
6.485,72.8
6.486,72.8
6.487,72.6
6.488,72.8
6.489,72.8
6.49,72.8
6.4910000000000005,72.8
6.492,73.0
6.493,72.8
6.494,72.6
6.495,72.8
6.496,72.6
6.497,72.8
6.498,72.8
6.4990000000000006,72.8
6.5,72.8
6.501,72.6
6.502,73.0
6.503,72.8
6.5040000000000004,72.8
6.505,72.8
6.506,72.8
6.507000000000001,72.6
6.508,72.8
6.509,72.6
6.51,72.4
6.511,72.6
6.5120000000000005,72.6
6.513,72.6
6.514,72.6
6.515000000000001,72.6
6.516,72.6
6.517,72.6
6.518,72.4
6.519,72.6
6.5200000000000005,72.4
6.521,72.4
6.522,72.4
6.523000000000001,72.0
6.524,72.2
6.525,72.4
6.526,72.4
6.527,72.0
6.5280000000000005,72.2
6.529,72.4
6.53,72.2
6.531,72.2
6.532,72.2
6.533,72.2
6.534,72.0
6.535,72.0
6.5360000000000005,72.2
6.537,72.2
6.538,72.2
6.539,72.0
6.54,72.0
6.541,72.0
6.542,72.2
6.543,72.0
6.5440000000000005,71.8
6.545,72.0
6.546,71.8
6.547,71.8
6.548,71.8
6.549,72.0
6.55,71.6
6.551,71.6
6.5520000000000005,71.4
6.553,71.4
6.554,71.6
6.555,71.6
6.556,71.6
6.557,71.6
6.558,71.4
6.559,71.2
6.5600000000000005,71.2
6.561,71.4
6.562,71.2
6.563,71.2
6.564,71.2
6.565,71.0
6.566,71.2
6.567,71.0
6.5680000000000005,71.0
6.569,71.0
6.57,71.0
6.571,71.0
6.572,71.0
6.573,71.0
6.574,70.8
6.575,70.8
6.5760000000000005,70.6
6.577,70.8
6.578,70.6
6.579,70.8
6.58,70.4
6.581,70.4
6.582,70.6
6.583,70.2
6.5840000000000005,70.2
6.585,70.4
6.586,70.2
6.587,70.2
6.588,70.4
6.589,70.4
6.59,70.2
6.591,70.4
6.5920000000000005,70.2
6.593,69.8
6.594,69.8
6.595,70.0
6.596,70.0
6.597,69.8
6.598,69.8
6.599,69.6
6.6000000000000005,69.8
6.601,69.8
6.602,69.8
6.603,69.6
6.604,69.6
6.605,69.6
6.606,69.2
6.607,69.4
6.6080000000000005,69.2
6.609,69.2
6.61,69.2
6.611,69.2
6.612,69.0
6.613,69.0
6.614,69.0
6.615,69.0
6.6160000000000005,68.8
6.617,68.8
6.618,68.8
6.619,68.8
6.62,68.8
6.621,68.8
6.622,68.6
6.623,68.4
6.6240000000000006,68.4
6.625,68.4
6.626,68.4
6.627,68.4
6.628,68.2
6.6290000000000004,68.2
6.63,68.4
6.631,68.2
6.632000000000001,68.2
6.633,68.2
6.634,68.0
6.635,68.0
6.636,68.0
6.6370000000000005,68.0
6.638,67.8
6.639,67.8
6.640000000000001,67.8
6.641,67.8
6.642,67.6
6.643,67.8
6.644,67.4
6.6450000000000005,67.4
6.646,67.6
6.647,67.4
6.648000000000001,67.4
6.649,67.2
6.65,67.2
6.651,67.2
6.652,67.2
6.6530000000000005,67.2
6.654,67.0
6.655,67.2
6.656000000000001,67.0
6.657,67.2
6.658,66.8
6.659,67.0
6.66,66.8
6.6610000000000005,66.8
6.662,66.8
6.663,66.8
6.664,66.6
6.665,66.6
6.666,66.6
6.667,66.6
6.668,66.4
6.6690000000000005,66.4
6.67,66.4
6.671,66.4
6.672,66.4
6.673,66.0
6.674,66.4
6.675,66.2
6.676,66.2
6.6770000000000005,66.0
6.678,66.0
6.679,65.8
6.68,65.8
6.681,65.8
6.682,65.8
6.683,65.8
6.684,65.8
6.6850000000000005,65.6
6.686,65.8
6.687,65.8
6.688,65.8
6.689,65.6
6.69,65.6
6.691,65.4
6.692,65.6
6.6930000000000005,65.2
6.694,65.2
6.695,65.4
6.696,65.2
6.697,65.4
6.698,65.2
6.699,65.2
6.7,65.2
6.7010000000000005,65.0
6.702,65.2
6.703,65.0
6.704,65.0
6.705,65.0
6.706,65.0
6.707,65.0
6.708,64.8
6.7090000000000005,64.8
6.71,65.0
6.711,64.8
6.712,64.8
6.713,64.8
6.714,64.8
6.715,64.6
6.716,64.8
6.7170000000000005,64.4
6.718,64.8
6.719,64.8
6.72,64.4
6.721,64.4
6.722,64.4
6.723,64.4
6.724,64.6
6.7250000000000005,64.4
6.726,64.2
6.727,64.4
6.728,64.4
6.729,64.6
6.73,64.2
6.731,64.2
6.732,64.2
6.7330000000000005,64.2
6.734,64.4
6.735,64.2
6.736,64.2
6.737,64.2
6.738,64.2
6.739,64.2
6.74,64.2
6.7410000000000005,64.2
6.742,64.0
6.743,64.2
6.744,64.0
6.745,64.2
6.746,64.0
6.747,64.2
6.748,64.0
6.7490000000000006,64.2
6.75,64.0
6.751,63.8
6.752,63.8
6.753,64.0
6.7540000000000004,64.0
6.755,64.0
6.756,64.0
6.757000000000001,63.6
6.758,64.0
6.759,64.0
6.76,64.0
6.761,64.0
6.7620000000000005,64.0
6.763,63.8
6.764,63.8
6.765000000000001,63.8
6.766,64.2
6.767,64.0
6.768,64.0
6.769,63.8
6.7700000000000005,63.8
6.771,63.8
6.772,63.8
6.773000000000001,63.8
6.774,63.8
6.775,63.8
6.776,63.8
6.777,63.8
6.7780000000000005,63.6
6.779,63.8
6.78,64.0
6.781000000000001,63.8
6.782,63.8
6.783,64.0
6.784,63.8
6.785,63.8
6.7860000000000005,64.0
6.787,63.8
6.788,63.8
6.789,63.8
6.79,64.0
6.791,63.8
6.792,63.8
6.793,63.8
6.7940000000000005,64.0
6.795,64.0
6.796,64.0
6.797,64.2
6.798,64.0
6.799,64.0
6.8,64.0
6.801,64.0
6.8020000000000005,63.8
6.803,64.2
6.804,64.0
6.805,64.2
6.806,64.0
6.807,64.0
6.808,64.0
6.809,64.2
6.8100000000000005,64.2
6.811,64.4
6.812,64.0
6.813,64.2
6.814,64.2
6.815,64.2
6.816,64.2
6.817,64.2
6.8180000000000005,64.2
6.819,64.2
6.82,64.0
6.821,64.0
6.822,64.4
6.823,64.2
6.824,64.2
6.825,64.2
6.8260000000000005,64.2
6.827,64.4
6.828,64.4
6.829,64.2
6.83,64.4
6.831,64.2
6.832,64.6
6.833,64.4
6.8340000000000005,64.4
6.835,64.6
6.836,64.2
6.837,64.4
6.838,64.6
6.839,64.6
6.84,64.6
6.841,64.4
6.8420000000000005,64.6
6.843,64.6
6.844,64.6
6.845,64.6
6.846,64.8
6.847,64.6
6.848,64.8
6.849,64.6
6.8500000000000005,64.8
6.851,64.6
6.852,65.0
6.853,64.8
6.854,64.8
6.855,65.0
6.856,64.8
6.857,64.8
6.8580000000000005,65.0
6.859,65.0
6.86,64.8
6.861,65.0
6.862,65.0
6.863,65.0
6.864,65.0
6.865,65.0
6.8660000000000005,65.2
6.867,65.2
6.868,65.2
6.869,65.4
6.87,65.4
6.871,65.2
6.872,65.4
6.873,65.2
6.8740000000000006,65.6
6.875,65.4
6.876,65.4
6.877,65.2
6.878,65.4
6.8790000000000004,65.6
6.88,65.6
6.881,65.6
6.882000000000001,65.8
6.883,65.6
6.884,65.8
6.885,65.8
6.886,66.0
6.8870000000000005,65.8
6.888,66.0
6.889,66.0
6.890000000000001,65.8
6.891,65.8
6.892,66.0
6.893,66.2
6.894,66.2
6.8950000000000005,66.4
6.896,66.2
6.897,66.2
6.898000000000001,66.4
6.899,66.2
6.9,66.4
6.901,66.4
6.902,66.4
6.9030000000000005,66.4
6.904,66.6
6.905,66.6
6.906000000000001,66.6
6.907,66.4
6.908,66.8
6.909,66.8
6.91,66.8
6.9110000000000005,66.8
6.912,66.8
6.913,67.0
6.914,67.0
6.915,66.8
6.916,67.0
6.917,67.2
6.918,67.0
6.9190000000000005,67.2
6.92,67.2
6.921,67.2
6.922,67.4
6.923,67.4
6.924,67.6
6.925,67.4
6.926,67.4
6.9270000000000005,67.6
6.928,67.4
6.929,67.6
6.93,67.6
6.931,67.6
6.932,67.8
6.933,67.8
6.934,67.8
6.9350000000000005,68.0
6.936,68.0
6.937,68.0
6.938,68.2
6.939,68.0
6.94,68.2
6.941,68.4
6.942,68.4
6.9430000000000005,68.2
6.944,68.4
6.945,68.4
6.946,68.4
6.947,68.8
6.948,68.4
6.949,68.8
6.95,68.6
6.9510000000000005,68.6
6.952,68.6
6.953,68.8
6.954,68.6
6.955,68.8
6.956,69.0
6.957,69.0
6.958,69.0
6.9590000000000005,68.8
6.96,69.2
6.961,68.8
6.962,69.2
6.963,69.0
6.964,69.2
6.965,69.4
6.966,69.4
6.9670000000000005,69.4
6.968,69.4
6.969,69.6
6.97,69.6
6.971,69.8
6.972,69.6
6.973,69.8
6.974,69.8
6.9750000000000005,70.0
6.976,69.8
6.977,69.8
6.978,70.0
6.979,69.8
6.98,70.0
6.981,70.0
6.982,70.2
6.9830000000000005,70.0
6.984,70.4
6.985,70.4
6.986,70.2
6.987,70.4
6.988,70.4
6.989,70.2
6.99,70.4
6.9910000000000005,70.4
6.992,70.6
6.993,70.6
6.994,70.8
6.995,70.6
6.996,70.6
6.997,70.8
6.998,70.8
6.9990000000000006,70.8
7.0,71.0
7.001,71.0
7.002,71.0
7.003,71.2
7.0040000000000004,70.8
7.005,71.0
7.006,71.0
7.007000000000001,71.2
7.008,71.2
7.009,71.2
7.01,71.2
7.011,71.4
7.0120000000000005,71.2
7.013,71.2
7.014,71.4
7.015000000000001,71.4
7.016,71.4
7.017,71.4
7.018,71.4
7.019,71.4
7.0200000000000005,71.6
7.021,71.6
7.022,71.8
7.023000000000001,71.6
7.024,72.0
7.025,72.0
7.026,71.8
7.027,71.8
7.0280000000000005,72.0
7.029,71.8
7.03,71.8
7.031000000000001,72.0
7.032,72.0
7.033,72.0
7.034,72.0
7.035,72.2
7.0360000000000005,72.0
7.037,72.0
7.038,72.2
7.039000000000001,72.0
7.04,72.0
7.041,72.2
7.042,72.0
7.043,72.2
7.0440000000000005,72.2
7.045,72.2
7.046,72.4
7.047,72.2
7.048,72.4
7.049,72.4
7.05,72.4
7.051,72.4
7.0520000000000005,72.4
7.053,72.4
7.054,72.4
7.055,72.4
7.056,72.6
7.057,72.4
7.058,72.4
7.059,72.6
7.0600000000000005,72.4
7.061,72.6
7.062,72.4
7.063,72.6
7.064,72.6
7.065,72.8
7.066,72.6
7.067,72.8
7.0680000000000005,72.8
7.069,72.6
7.07,72.8
7.071,72.8
7.072,72.6
7.073,72.8
7.074,72.8
7.075,72.6
7.0760000000000005,72.8
7.077,73.0
7.078,72.8
7.079,72.6
7.08,73.0
7.081,72.8
7.082,72.8
7.083,72.8
7.0840000000000005,73.0
7.085,73.0
7.086,73.0
7.087,73.0
7.088,72.8
7.089,72.8
7.09,72.8
7.091,72.8
7.0920000000000005,72.8
7.093,73.0
7.094,72.8
7.095,72.8
7.096,73.0
7.097,73.0
7.098,72.6
7.099,72.8
7.1000000000000005,72.8
7.101,73.0
7.102,73.0
7.103,72.8
7.104,72.8
7.105,72.6
7.106,72.8
7.107,73.0
7.1080000000000005,72.6
7.109,72.8
7.11,72.8
7.111,72.6
7.112,72.8
7.113,72.8
7.114,72.8
7.115,72.6
7.1160000000000005,72.8
7.117,72.6
7.118,72.6
7.119,72.8
7.12,72.8
7.121,72.4
7.122,72.4
7.123,72.6
7.1240000000000006,72.6
7.125,72.6
7.126,72.6
7.127,72.4
7.128,72.4
7.1290000000000004,72.2
7.13,72.4
7.131,72.4
7.132000000000001,72.4
7.133,72.4
7.134,72.4
7.135,72.4
7.136,72.6
7.1370000000000005,72.4
7.138,72.2
7.139,72.4
7.140000000000001,72.2
7.141,72.2
7.142,72.2
7.143,72.2
7.144,72.4
7.1450000000000005,72.4
7.146,72.0
7.147,72.2
7.148000000000001,72.2
7.149,72.0
7.15,72.0
7.151,72.0
7.152,71.8
7.1530000000000005,72.0
7.154,72.0
7.155,72.0
7.156000000000001,71.8
7.157,71.8
7.158,71.8
7.159,71.8
7.16,71.8
7.1610000000000005,71.6
7.162,71.8
7.163,72.0
7.164000000000001,71.6
7.165,71.6
7.166,71.6
7.167,71.6
7.168,71.4
7.1690000000000005,71.4
7.17,71.4
7.171,71.6
7.172,71.4
7.173,71.4
7.174,71.2
7.175,71.2
7.176,71.2
7.1770000000000005,71.2
7.178,70.8
7.179,71.2
7.18,71.0
7.181,71.0
7.182,71.0
7.183,71.0
7.184,70.8
7.1850000000000005,71.0
7.186,71.0
7.187,70.8
7.188,70.8
7.189,70.8
7.19,70.8
7.191,70.6
7.192,70.8
7.1930000000000005,70.8
7.194,70.4
7.195,70.8
7.196,70.6
7.197,70.2
7.198,70.4
7.199,70.4
7.2,70.4
7.2010000000000005,70.4
7.202,70.2
7.203,70.4
7.204,70.0
7.205,70.2
7.206,70.0
7.207,70.0
7.208,70.2
7.2090000000000005,70.0
7.21,69.6
7.211,70.0
7.212,70.0
7.213,69.8
7.214,69.8
7.215,69.6
7.216,69.4
7.2170000000000005,69.2
7.218,69.6
7.219,69.6
7.22,69.2
7.221,69.4
7.222,69.4
7.223,69.4
7.224,69.2
7.2250000000000005,69.2
7.226,69.2
7.227,69.0
7.228,69.0
7.229,69.0
7.23,69.0
7.231,69.0
7.232,68.8
7.2330000000000005,68.6
7.234,68.6
7.235,68.6
7.236,68.4
7.237,68.6
7.238,68.6
7.239,68.6
7.24,68.4
7.2410000000000005,68.4
7.242,68.4
7.243,68.4
7.244,68.2
7.245,68.2
7.246,68.0
7.247,68.2
7.248,68.2
7.2490000000000006,68.2
7.25,67.6
7.251,67.8
7.252,67.6
7.253,67.6
7.2540000000000004,67.8
7.255,67.6
7.256,67.8
7.257000000000001,67.6
7.258,67.4
7.259,67.6
7.26,67.4
7.261,67.4
7.2620000000000005,67.6
7.263,67.4
7.264,67.2
7.265000000000001,67.2
7.266,67.4
7.267,67.0
7.268,67.0
7.269,67.0
7.2700000000000005,67.0
7.271,66.8
7.272,66.8
7.273000000000001,66.8
7.274,66.8
7.275,66.8
7.276,66.8
7.277,66.6
7.2780000000000005,66.8
7.279,66.6
7.28,66.4
7.281000000000001,66.4
7.282,66.4
7.283,66.4
7.284,66.4
7.285,66.2
7.2860000000000005,66.2
7.287,66.2
7.288,66.0
7.289000000000001,66.2
7.29,66.0
7.291,66.0
7.292,66.0
7.293,66.0
7.2940000000000005,65.8
7.295,66.0
7.296,65.8
7.297,65.8
7.298,65.8
7.299,65.8
7.3,65.8
7.301,65.6
7.3020000000000005,65.6
7.303,65.4
7.304,65.6
7.305,65.6
7.306,65.4
7.307,65.4
7.308,65.4
7.309,65.2
7.3100000000000005,65.4
7.311,65.2
7.312,65.2
7.313,65.2
7.314,65.2
7.315,65.0
7.316,65.0
7.317,65.0
7.3180000000000005,65.0
7.319,64.8
7.32,65.0
7.321,64.8
7.322,64.8
7.323,65.0
7.324,64.6
7.325,64.8
7.3260000000000005,64.6
7.327,64.8
7.328,64.8
7.329,64.8
7.33,64.6
7.331,64.6
7.332,64.6
7.333,64.6
7.3340000000000005,64.8
7.335,64.6
7.336,64.4
7.337,64.4
7.338,64.4
7.339,64.4
7.34,64.4
7.341,64.4
7.3420000000000005,64.4
7.343,64.6
7.344,64.2
7.345,64.2
7.346,64.2
7.347,64.4
7.348,64.2
7.349,64.2
7.3500000000000005,64.2
7.351,64.2
7.352,64.0
7.353,64.2
7.354,64.2
7.355,64.0
7.356,64.2
7.357,64.0
7.3580000000000005,64.0
7.359,63.8
7.36,64.2
7.361,64.2
7.362,64.2
7.363,64.2
7.364,64.0
7.365,64.0
7.3660000000000005,63.8
7.367,64.0
7.368,63.8
7.369,64.2
7.37,64.0
7.371,64.0
7.372,63.8
7.373,64.0
7.3740000000000006,64.0
7.375,64.0
7.376,64.0
7.377,64.2
7.378,63.8
7.3790000000000004,64.0
7.38,64.0
7.381,63.8
7.382000000000001,63.8
7.383,64.0
7.384,64.0
7.385,63.8
7.386,63.8
7.3870000000000005,63.8
7.388,64.0
7.389,63.6
7.390000000000001,63.8
7.391,64.0
7.392,63.8
7.393,64.0
7.394,64.0
7.3950000000000005,63.8
7.396,64.0
7.397,64.0
7.398000000000001,63.8
7.399,64.0
7.4,63.6
7.401,63.8
7.402,63.8
7.4030000000000005,64.0
7.404,63.8
7.405,64.0
7.406000000000001,64.0
7.407,63.8
7.408,63.8
7.409,64.0
7.41,64.0
7.4110000000000005,63.8
7.412,64.0
7.413,63.8
7.414000000000001,63.8
7.415,64.0
7.416,64.2
7.417,64.2
7.418,63.8
7.4190000000000005,64.0
7.42,64.0
7.421,64.2
7.422000000000001,64.2
7.423,64.0
7.424,64.0
7.425,64.0
7.426,64.0
7.4270000000000005,64.2
7.428,64.0
7.429,64.2
7.43,64.2
7.431,64.0
7.432,64.2
7.433,64.2
7.434,64.2
7.4350000000000005,64.2
7.436,64.4
7.437,64.0
7.438,64.2
7.439,64.2
7.44,64.2
7.441,64.6
7.442,64.4
7.4430000000000005,64.4
7.444,64.2
7.445,64.4
7.446,64.4
7.447,64.4
7.448,64.4
7.449,64.4
7.45,64.4
7.4510000000000005,64.6
7.452,64.6
7.453,64.4
7.454,64.4
7.455,64.6
7.456,64.6
7.457,64.6
7.458,64.6
7.4590000000000005,64.6
7.46,64.6
7.461,64.6
7.462,64.8
7.463,64.8
7.464,65.0
7.465,64.8
7.466,65.0
7.4670000000000005,64.8
7.468,64.8
7.469,65.0
7.47,65.0
7.471,65.0
7.472,65.0
7.473,65.0
7.474,64.8
7.4750000000000005,65.0
7.476,65.0
7.477,65.2
7.478,65.0
7.479,65.2
7.48,65.2
7.481,65.2
7.482,65.2
7.4830000000000005,65.4
7.484,65.2
7.485,65.4
7.486,65.4
7.487,65.4
7.488,65.4
7.489,65.6
7.49,65.8
7.4910000000000005,65.4
7.492,65.6
7.493,65.8
7.494,65.6
7.495,65.8
7.496,65.8
7.497,65.8
7.498,66.0
7.4990000000000006,65.6
7.5,65.8
7.501,65.6
7.502,66.0
7.503,65.8
7.5040000000000004,66.2
7.505,66.0
7.506,66.2
7.507000000000001,66.0
7.508,66.2
7.509,66.2
7.51,66.4
7.511,66.2
7.5120000000000005,66.2
7.513,66.2
7.514,66.2
7.515000000000001,66.4
7.516,66.4
7.517,66.4
7.518,66.6
7.519,66.6
7.5200000000000005,66.8
7.521,66.8
7.522,66.6
7.523000000000001,66.8
7.524,66.8
7.525,66.6
7.526,66.8
7.527,67.0
7.5280000000000005,66.8
7.529,67.2
7.53,67.0
7.531000000000001,67.0
7.532,67.2
7.533,67.2
7.534,67.2
7.535,67.2
7.5360000000000005,67.2
7.537,67.4
7.538,67.4
7.539000000000001,67.4
7.54,67.4
7.541,67.6
7.542,67.6
7.543,67.6
7.5440000000000005,68.0
7.545,67.6
7.546,67.8
7.547000000000001,67.8
7.548,67.8
7.549,68.0
7.55,68.0
7.551,68.0
7.5520000000000005,68.0
7.553,68.0
7.554,68.2
7.555,68.2
7.556,68.4
7.557,68.4
7.558,68.2
7.559,68.4
7.5600000000000005,68.4
7.561,68.6
7.562,68.6
7.563,68.8
7.564,68.6
7.565,68.6
7.566,68.8
7.567,68.8
7.5680000000000005,68.8
7.569,69.0
7.57,69.0
7.571,69.0
7.572,69.0
7.573,69.2
7.574,69.0
7.575,69.2
7.5760000000000005,69.2
7.577,69.2
7.578,69.2
7.579,69.2
7.58,69.2
7.581,69.6
7.582,69.4
7.583,69.4
7.5840000000000005,69.4
7.585,69.6
7.586,69.8
7.587,69.6
7.588,69.8
7.589,70.0
7.59,69.8
7.591,69.8
7.5920000000000005,70.0
7.593,70.2
7.594,70.2
7.595,70.2
7.596,70.2
7.597,70.4
7.598,70.2
7.599,70.4
7.6000000000000005,70.4
7.601,70.4
7.602,70.4
7.603,70.4
7.604,70.6
7.605,70.6
7.606,70.6
7.607,70.8
7.6080000000000005,70.6
7.609,70.8
7.61,70.8
7.611,70.6
7.612,70.8
7.613,70.8
7.614,71.2
7.615,71.0
7.6160000000000005,70.8
7.617,71.0
7.618,71.0
7.619,71.0
7.62,71.2
7.621,71.0
7.622,71.0
7.623,71.0
7.6240000000000006,71.2
7.625,71.4
7.626,71.4
7.627,71.2
7.628,71.4
7.6290000000000004,71.6
7.63,71.4
7.631,71.6
7.632000000000001,71.6
7.633,71.4
7.634,71.6
7.635,71.6
7.636,71.6
7.6370000000000005,71.6
7.638,71.8
7.639,72.0
7.640000000000001,71.8
7.641,71.6
7.642,71.8
7.643,71.8
7.644,72.0
7.6450000000000005,72.0
7.646,72.2
7.647,72.0
7.648000000000001,71.8
7.649,72.0
7.65,72.0
7.651,72.0
7.652,72.0
7.6530000000000005,72.2
7.654,72.0
7.655,72.0
7.656000000000001,71.8
7.657,72.2
7.658,72.4
7.659,72.2
7.66,72.4
7.6610000000000005,72.4
7.662,72.4
7.663,72.2
7.664000000000001,72.6
7.665,72.2
7.666,72.6
7.667,72.4
7.668,72.6
7.6690000000000005,72.2
7.67,72.6
7.671,72.6
7.672000000000001,72.6
7.673,72.4
7.674,72.8
7.675,72.6
7.676,72.6
7.6770000000000005,72.8
7.678,72.6
7.679,72.6
7.68,72.6
7.681,72.8
7.682,72.4
7.683,72.6
7.684,72.6
7.6850000000000005,72.8
7.686,72.6
7.687,73.0
7.688,73.0
7.689,72.8
7.69,72.8
7.691,73.0
7.692,72.8
7.6930000000000005,73.0
7.694,72.8
7.695,72.8
7.696,73.0
7.697,72.8
7.698,72.8
7.699,72.8
7.7,72.8
7.7010000000000005,73.0
7.702,73.0
7.703,72.8
7.704,72.8
7.705,72.8
7.706,72.8
7.707,72.8
7.708,73.0
7.7090000000000005,72.8
7.71,72.8
7.711,72.8
7.712,72.8
7.713,73.0
7.714,72.8
7.715,72.6
7.716,72.8
7.7170000000000005,73.0
7.718,72.8
7.719,72.8
7.72,72.6
7.721,72.8
7.722,72.6
7.723,72.6
7.724,72.8
7.7250000000000005,72.8
7.726,72.8
7.727,72.8
7.728,72.8
7.729,72.6
7.73,72.8
7.731,72.8
7.732,72.6
7.7330000000000005,72.6
7.734,72.6
7.735,72.4
7.736,72.4
7.737,72.6
7.738,72.6
7.739,72.6
7.74,72.4
7.7410000000000005,72.4
7.742,72.4
7.743,72.6
7.744,72.6
7.745,72.6
7.746,72.4
7.747,72.4
7.748,72.4
7.7490000000000006,72.6
7.75,72.2
7.751,72.2
7.752,72.4
7.753,72.0
7.7540000000000004,72.2
7.755,72.0
7.756,72.2
7.757000000000001,72.2
7.758,72.2
7.759,72.2
7.76,72.2
7.761,72.2
7.7620000000000005,72.0
7.763,72.0
7.764,72.0
7.765000000000001,72.0
7.766,72.0
7.767,72.0
7.768,71.8
7.769,71.8
7.7700000000000005,72.0
7.771,71.8
7.772,71.8
7.773000000000001,72.0
7.774,71.4
7.775,71.6
7.776,72.0
7.777,72.0
7.7780000000000005,71.4
7.779,71.6
7.78,71.8
7.781000000000001,71.4
7.782,71.4
7.783,71.4
7.784,71.4
7.785,71.4
7.7860000000000005,71.6
7.787,71.4
7.788,71.2
7.789000000000001,71.4
7.79,71.2
7.791,71.4
7.792,71.2
7.793,71.2
7.7940000000000005,71.0
7.795,71.0
7.796,70.8
7.797000000000001,71.0
7.798,70.8
7.799,71.0
7.8,70.8
7.801,70.8
7.8020000000000005,70.8
7.803,70.8
7.804,70.6
7.805000000000001,70.8
7.806,70.8
7.807,70.6
7.808,70.6
7.809,70.4
7.8100000000000005,70.4
7.811,70.4
7.812,70.4
7.813,70.4
7.814,70.2
7.815,70.2
7.816,70.4
7.817,70.2
7.8180000000000005,70.4
7.819,70.0
7.82,70.0
7.821,70.0
7.822,69.8
7.823,70.2
7.824,70.0
7.825,70.0
7.8260000000000005,69.8
7.827,69.6
7.828,69.6
7.829,69.6
7.83,69.6
7.831,69.4
7.832,69.4
7.833,69.4
7.8340000000000005,69.4
7.835,69.4
7.836,69.4
7.837,69.2
7.838,69.4
7.839,69.0
7.84,69.0
7.841,68.8
7.8420000000000005,68.8
7.843,69.0
7.844,69.0
7.845,68.8
7.846,68.6
7.847,68.8
7.848,68.6
7.849,68.6
7.8500000000000005,68.6
7.851,68.6
7.852,68.4
7.853,68.4
7.854,68.6
7.855,68.4
7.856,68.4
7.857,68.4
7.8580000000000005,68.2
7.859,68.2
7.86,68.2
7.861,68.0
7.862,68.0
7.863,68.0
7.864,67.8
7.865,68.0
7.8660000000000005,67.6
7.867,67.6
7.868,67.8
7.869,67.6
7.87,67.6
7.871,67.4
7.872,67.6
7.873,67.4
7.8740000000000006,67.4
7.875,67.2
7.876,67.4
7.877,67.2
7.878,67.2
7.8790000000000004,67.2
7.88,67.2
7.881,67.2
7.882000000000001,67.0
7.883,67.0
7.884,66.8
7.885,67.0
7.886,66.8
7.8870000000000005,66.6
7.888,66.8
7.889,66.8
7.890000000000001,66.6
7.891,66.8
7.892,66.6
7.893,66.6
7.894,66.4
7.8950000000000005,66.2
7.896,66.4
7.897,66.4
7.898000000000001,66.4
7.899,66.2
7.9,66.4
7.901,66.2
7.902,66.2
7.9030000000000005,66.0
7.904,66.2
7.905,66.0
7.906000000000001,66.2
7.907,66.0
7.908,65.8
7.909,65.8
7.91,65.6
7.9110000000000005,65.8
7.912,65.8
7.913,65.6
7.914000000000001,65.6
7.915,65.4
7.916,65.6
7.917,65.6
7.918,65.6
7.9190000000000005,65.6
7.92,65.4
7.921,65.4
7.922000000000001,65.4
7.923,65.4
7.924,65.2
7.925,65.2
7.926,65.2
7.9270000000000005,65.2
7.928,65.2
7.929,65.2
7.930000000000001,65.0
7.931,65.2
7.932,65.0
7.933,65.0
7.934,65.0
7.9350000000000005,65.0
7.936,64.8
7.937,64.8
7.938,64.8
7.939,64.6
7.94,64.8
7.941,64.8
7.942,64.8
7.9430000000000005,64.6
7.944,64.6
7.945,64.6
7.946,64.6
7.947,64.8
7.948,64.6
7.949,64.4
7.95,64.6
7.9510000000000005,64.4
7.952,64.4
7.953,64.2
7.954,64.4
7.955,64.2
7.956,64.4
7.957,64.4
7.958,64.4
7.9590000000000005,64.4
7.96,64.2
7.961,64.2
7.962,64.2
7.963,64.2
7.964,64.2
7.965,64.2
7.966,64.0
7.9670000000000005,64.0
7.968,64.2
7.969,64.0
7.97,64.0
7.971,64.2
7.972,64.0
7.973,64.0
7.974,64.2
7.9750000000000005,64.2
7.976,63.8
7.977,64.0
7.978,64.0
7.979,63.8
7.98,64.0
7.981,63.8
7.982,64.0
7.9830000000000005,63.8
7.984,64.0
7.985,64.2
7.986,63.8
7.987,64.0
7.988,64.0
7.989,63.8
7.99,64.2
7.9910000000000005,64.0
7.992,64.0
7.993,64.0
7.994,63.6
7.995,63.8
7.996,63.8
7.997,64.0
7.998,63.8
7.9990000000000006,63.8
8.0,63.8
8.001,63.8
8.002,63.8
8.003,63.8
8.004,64.0
8.005,63.8
8.006,64.0
8.007,63.8
8.008000000000001,63.8
8.009,63.8
8.01,63.8
8.011000000000001,63.8
8.012,63.8
8.013,63.8
8.014,63.8
8.015,64.0
8.016,63.8
8.017,64.0
8.018,64.0
8.019,63.8
8.02,63.8
8.021,63.8
8.022,64.0
8.023,64.0
8.024000000000001,64.0
8.025,63.8
8.026,63.8
8.027000000000001,64.0
8.028,64.0
8.029,63.8
8.03,64.2
8.031,64.0
8.032,63.8
8.033,63.8
8.034,64.2
8.035,64.0
8.036,64.0
8.037,64.0
8.038,64.0
8.039,64.0
8.040000000000001,64.0
8.041,64.2
8.042,64.2
8.043000000000001,64.0
8.044,64.0
8.045,64.0
8.046,64.2
8.047,64.2
8.048,64.0
8.049,64.2
8.05,64.2
8.051,64.2
8.052,64.2
8.053,64.2
8.054,64.4
8.055,64.4
8.056000000000001,64.4
8.057,64.4
8.058,64.4
8.059000000000001,64.2
8.06,64.4
8.061,64.4
8.062,64.4
8.063,64.6
8.064,64.6
8.065,64.4
8.066,64.4
8.067,64.4
8.068,64.4
8.069,64.4
8.07,64.6
8.071,64.6
8.072000000000001,64.6
8.073,65.0
8.074,64.8
8.075,64.6
8.076,64.8
8.077,65.0
8.078,64.6
8.079,64.8
8.08,64.8
8.081,65.0
8.082,64.8
8.083,65.0
8.084,65.0
8.085,65.0
8.086,65.0
8.087,65.0
8.088000000000001,65.0
8.089,65.2
8.09,65.0
8.091,65.2
8.092,65.2
8.093,65.0
8.094,65.2
8.095,65.2
8.096,65.4
8.097,65.2
8.098,65.2
8.099,65.2
8.1,65.4
8.101,65.4
8.102,65.4
8.103,65.6
8.104000000000001,65.8
8.105,65.6
8.106,65.8
8.107,65.6
8.108,65.6
8.109,65.8
8.11,65.8
8.111,65.6
8.112,65.8
8.113,65.8
8.114,66.0
8.115,66.0
8.116,65.8
8.117,66.0
8.118,66.0
8.119,65.8
8.120000000000001,66.2
8.121,66.0
8.122,66.2
8.123,66.0
8.124,66.4
8.125,66.4
8.126,66.4
8.127,66.4
8.128,66.4
8.129,66.4
8.13,66.4
8.131,66.4
8.132,66.6
8.133000000000001,66.6
8.134,66.8
8.135,66.6
8.136000000000001,66.8
8.137,66.8
8.138,67.0
8.139,67.0
8.14,66.8
8.141,67.0
8.142,67.0
8.143,67.2
8.144,67.2
8.145,67.4
8.146,67.2
8.147,67.4
8.148,67.2
8.149000000000001,67.2
8.15,67.2
8.151,67.2
8.152000000000001,67.4
8.153,67.6
8.154,67.6
8.155,67.6
8.156,67.6
8.157,67.8
8.158,67.6
8.159,67.6
8.16,67.8
8.161,68.0
8.162,68.0
8.163,67.8
8.164,68.0
8.165000000000001,68.0
8.166,68.0
8.167,68.0
8.168000000000001,68.2
8.169,68.4
8.17,68.4
8.171,68.4
8.172,68.4
8.173,68.4
8.174,68.4
8.175,68.6
8.176,68.6
8.177,68.8
8.178,68.6
8.179,68.6
8.18,68.8
8.181000000000001,68.8
8.182,68.8
8.183,68.8
8.184000000000001,69.2
8.185,69.0
8.186,69.0
8.187,69.0
8.188,69.2
8.189,69.2
8.19,69.0
8.191,69.2
8.192,69.2
8.193,69.4
8.194,69.4
8.195,69.6
8.196,69.4
8.197000000000001,69.6
8.198,69.8
8.199,69.8
8.2,69.6
8.201,69.6
8.202,69.8
8.203,70.0
8.204,70.0
8.205,69.8
8.206,69.8
8.207,70.0
8.208,70.2
8.209,70.2
8.21,70.0
8.211,70.2
8.212,70.4
8.213000000000001,70.4
8.214,70.4
8.215,70.2
8.216,70.2
8.217,70.2
8.218,70.4
8.219,70.4
8.22,70.8
8.221,70.8
8.222,70.6
8.223,70.6
8.224,70.8
8.225,70.8
8.226,70.8
8.227,70.8
8.228,70.8
8.229000000000001,71.0
8.23,71.0
8.231,71.0
8.232,71.2
8.233,71.0
8.234,71.2
8.235,71.0
8.236,71.0
8.237,71.2
8.238,71.2
8.239,71.2
8.24,71.4
8.241,71.4
8.242,71.4
8.243,71.4
8.244,71.6
8.245000000000001,71.4
8.246,71.4
8.247,71.6
8.248,71.6
8.249,71.6
8.25,71.6
8.251,71.8
8.252,72.0
8.253,72.0
8.254,72.0
8.255,72.0
8.256,72.0
8.257,71.8
8.258000000000001,72.0
8.259,71.8
8.26,72.0
8.261000000000001,72.0
8.262,72.0
8.263,71.8
8.264,72.0
8.265,72.0
8.266,72.0
8.267,72.0
8.268,72.2
8.269,72.0
8.27,72.2
8.271,72.2
8.272,72.2
8.273,72.2
8.274000000000001,72.2
8.275,72.4
8.276,72.4
8.277000000000001,72.2
8.278,72.4
8.279,72.4
8.28,72.2
8.281,72.4
8.282,72.4
8.283,72.4
8.284,72.6
8.285,72.6
8.286,72.6
8.287,72.6
8.288,72.8
8.289,72.6
8.290000000000001,72.6
8.291,72.4
8.292,72.6
8.293000000000001,72.6
8.294,72.8
8.295,72.6
8.296,72.8
8.297,72.8
8.298,72.8
8.299,72.8
8.3,72.6
8.301,72.8
8.302,73.0
8.303,72.8
8.304,72.6
8.305,72.6
8.306000000000001,72.8
8.307,72.8
8.308,72.8
8.309000000000001,72.8
8.31,72.8
8.311,73.0
8.312,73.0
8.313,72.8
8.314,72.6
8.315,72.8
8.316,72.8
8.317,72.6
8.318,73.0
8.319,73.0
8.32,73.0
8.321,72.8
8.322000000000001,72.8
8.323,72.8
8.324,73.0
8.325,72.8
8.326,72.6
8.327,72.6
8.328,72.8
8.329,72.8
8.33,72.6
8.331,72.8
8.332,72.8
8.333,72.8
8.334,72.6
8.335,72.6
8.336,72.8
8.337,72.8
8.338000000000001,72.8
8.339,72.8
8.34,72.8
8.341,72.6
8.342,72.8
8.343,72.8
8.344,72.8
8.345,72.6
8.346,72.8
8.347,72.6
8.348,72.6
8.349,72.4
8.35,72.8
8.351,72.8
8.352,72.6
8.353,72.6
8.354000000000001,72.4
8.355,72.4
8.356,72.4
8.357,72.6
8.358,72.4
8.359,72.4
8.36,72.4
8.361,72.6
8.362,72.2
8.363,72.2
8.364,72.4
8.365,72.2
8.366,72.0
8.367,72.4
8.368,72.2
8.369,72.2
8.370000000000001,72.4
8.371,72.4
8.372,72.0
8.373,72.2
8.374,72.2
8.375,72.0
8.376,72.0
8.377,71.8
8.378,72.0
8.379,71.8
8.38,72.0
8.381,72.2
8.382,71.8
8.383000000000001,72.0
8.384,72.0
8.385,71.8
8.386000000000001,72.0
8.387,72.0
8.388,72.0
8.389,71.8
8.39,71.8
8.391,71.6
8.392,71.6
8.393,71.6
8.394,71.4
8.395,71.6
8.396,71.4
8.397,71.6
8.398,71.2
8.399000000000001,71.6
8.4,71.2
8.401,71.2
8.402000000000001,71.4
8.403,71.0
8.404,71.2
8.405,71.0
8.406,71.2
8.407,71.2
8.408,70.8
8.409,71.0
8.41,70.8
8.411,71.0
8.412,71.0
8.413,70.8
8.414,70.8
8.415000000000001,70.8
8.416,70.8
8.417,70.8
8.418000000000001,70.8
8.419,70.8
8.42,70.6
8.421,70.6
8.422,70.6
8.423,70.6
8.424,70.6
8.425,70.4
8.426,70.4
8.427,70.2
8.428,70.2
8.429,70.2
8.43,70.4
8.431000000000001,70.4
8.432,70.2
8.433,69.8
8.434000000000001,70.2
8.435,70.0
8.436,70.0
8.437,70.0
8.438,69.8
8.439,69.8
8.44,69.8
8.441,69.8
8.442,69.8
8.443,69.6
8.444,69.6
8.445,69.4
8.446,69.4
8.447000000000001,69.4
8.448,69.4
8.449,69.4
8.45,69.2
8.451,69.2
8.452,69.2
8.453,69.0
8.454,69.2
8.455,68.8
8.456,68.8
8.457,69.0
8.458,68.8
8.459,68.8
8.46,68.8
8.461,68.8
8.462,68.8
8.463000000000001,68.4
8.464,68.6
8.465,68.4
8.466,68.6
8.467,68.4
8.468,68.2
8.469,68.4
8.47,68.4
8.471,68.0
8.472,68.2
8.473,68.2
8.474,68.0
8.475,68.0
8.476,68.0
8.477,67.8
8.478,68.0
8.479000000000001,68.0
8.48,68.0
8.481,67.8
8.482,67.8
8.483,67.8
8.484,67.4
8.485,67.6
8.486,67.6
8.487,67.4
8.488,67.2
8.489,67.4
8.49,67.4
8.491,67.4
8.492,67.2
8.493,67.4
8.494,67.2
8.495000000000001,67.0
8.496,67.2
8.497,67.0
8.498,66.8
8.499,67.0
8.5,66.8
8.501,66.8
8.502,66.6
8.503,66.8
8.504,66.6
8.505,66.8
8.506,66.6
8.507,66.4
8.508000000000001,66.4
8.509,66.4
8.51,66.4
8.511000000000001,66.4
8.512,66.2
8.513,66.2
8.514,66.2
8.515,66.2
8.516,66.2
8.517,66.2
8.518,66.2
8.519,66.0
8.52,66.0
8.521,66.2
8.522,66.2
8.523,65.8
8.524000000000001,65.6
8.525,65.8
8.526,65.6
8.527000000000001,65.6
8.528,65.6
8.529,65.8
8.53,65.8
8.531,65.6
8.532,65.4
8.533,65.6
8.534,65.4
8.535,65.4
8.536,65.6
8.537,65.4
8.538,65.2
8.539,65.2
8.540000000000001,65.0
8.541,65.2
8.542,65.0
8.543000000000001,65.0
8.544,65.0
8.545,65.0
8.546,65.0
8.547,64.8
8.548,64.8
8.549,64.8
8.55,65.0
8.551,64.8
8.552,64.8
8.553,64.8
8.554,64.6
8.555,64.8
8.556000000000001,64.6
8.557,64.6
8.558,64.6
8.559000000000001,64.6
8.56,64.6
8.561,64.4
8.562,64.6
8.563,64.6
8.564,64.2
8.565,64.6
8.566,64.2
8.567,64.2
8.568,64.4
8.569,64.4
8.57,64.2
8.571,64.4
8.572000000000001,64.4
8.573,64.0
8.574,64.2
8.575000000000001,64.2
8.576,64.2
8.577,64.0
8.578,64.2
8.579,64.4
8.58,64.0
8.581,64.2
8.582,64.2
8.583,64.2
8.584,64.2
8.585,64.0
8.586,64.2
8.587,64.2
8.588000000000001,64.0
8.589,64.2
8.59,64.0
8.591,64.2
8.592,64.0
8.593,64.0
8.594,64.0
8.595,64.0
8.596,64.0
8.597,64.0
8.598,64.0
8.599,64.2
8.6,64.0
8.601,64.0
8.602,63.8
8.603,63.6
8.604000000000001,64.0
8.605,64.0
8.606,63.8
8.607,63.6
8.608,64.0
8.609,63.8
8.61,63.8
8.611,63.6
8.612,63.8
8.613,63.8
8.614,63.8
8.615,64.0
8.616,64.0
8.617,64.0
8.618,63.8
8.619,64.0
8.620000000000001,63.8
8.621,64.0
8.622,64.0
8.623,63.6
8.624,64.0
8.625,63.6
8.626,64.0
8.627,63.8
8.628,63.8
8.629,64.0
8.63,63.8
8.631,63.6
8.632,63.8
8.633000000000001,63.8
8.634,64.2
8.635,64.0
8.636000000000001,64.0
8.637,64.0
8.638,63.8
8.639,64.0
8.64,64.0
8.641,63.8
8.642,63.8
8.643,64.2
8.644,64.0
8.645,63.8
8.646,64.0
8.647,64.0
8.648,64.2
8.649000000000001,64.2
8.65,64.2
8.651,64.2
8.652000000000001,64.0
8.653,64.0
8.654,64.2
8.655,63.8
8.656,64.0
8.657,64.2
8.658,64.2
8.659,64.2
8.66,64.2
8.661,64.2
8.662,64.2
8.663,64.0
8.664,64.2
8.665000000000001,64.4
8.666,64.2
8.667,64.2
8.668000000000001,64.2
8.669,64.2
8.67,64.6
8.671,64.4
8.672,64.2
8.673,64.4
8.674,64.4
8.675,64.6
8.676,64.4
8.677,64.4
8.678,64.6
8.679,64.6
8.68,64.6
8.681000000000001,64.6
8.682,64.6
8.683,64.6
8.684000000000001,64.6
8.685,64.8
8.686,64.8
8.687,64.6
8.688,64.8
8.689,64.6
8.69,64.8
8.691,64.8
8.692,65.0
8.693,65.0
8.694,65.0
8.695,64.8
8.696,65.0
8.697000000000001,65.0
8.698,65.0
8.699,65.0
8.700000000000001,65.0
8.701,65.0
8.702,64.8
8.703,65.2
8.704,65.2
8.705,65.0
8.706,65.2
8.707,65.2
8.708,65.4
8.709,65.2
8.71,65.2
8.711,65.6
8.712,65.2
8.713000000000001,65.2
8.714,65.4
8.715,65.4
8.716,65.6
8.717,65.4
8.718,65.6
8.719,65.8
8.72,65.8
8.721,65.8
8.722,65.6
8.723,65.8
8.724,65.8
8.725,65.6
8.726,65.8
8.727,65.8
8.728,66.0
8.729000000000001,66.0
8.73,66.0
8.731,65.8
8.732,66.0
8.733,66.0
8.734,66.2
8.735,66.4
8.736,66.2
8.737,66.2
8.738,66.4
8.739,66.2
8.74,66.2
8.741,66.2
8.742,66.4
8.743,66.4
8.744,66.2
8.745000000000001,66.4
8.746,66.6
8.747,66.6
8.748,66.4
8.749,66.8
8.75,66.8
8.751,67.0
8.752,66.8
8.753,66.8
8.754,66.8
8.755,67.0
8.756,67.0
8.757,66.8
8.758000000000001,67.2
8.759,67.2
8.76,67.2
8.761000000000001,67.2
8.762,67.2
8.763,67.2
8.764,67.2
8.765,67.4
8.766,67.4
8.767,67.6
8.768,67.6
8.769,67.6
8.77,67.6
8.771,67.6
8.772,67.8
8.773,67.8
8.774000000000001,67.8
8.775,67.8
8.776,68.0
8.777000000000001,68.0
8.778,68.2
8.779,68.0
8.78,68.0
8.781,68.2
8.782,68.2
8.783,68.2
8.784,68.2
8.785,68.2
8.786,68.4
8.787,68.4
8.788,68.4
8.789,68.6
8.790000000000001,68.4
8.791,68.6
8.792,68.6
8.793000000000001,68.8
8.794,68.8
8.795,68.8
8.796,68.8
8.797,69.0
8.798,69.0
8.799,68.8
8.8,69.0
8.801,69.0
8.802,69.0
8.803,69.2
8.804,69.2
8.805,69.2
8.806000000000001,69.2
8.807,69.4
8.808,69.6
8.809000000000001,69.4
8.81,69.6
8.811,69.4
8.812,69.6
8.813,69.8
8.814,69.8
8.815,70.0
8.816,69.8
8.817,70.0
8.818,70.0
8.819,70.0
8.82,70.2
8.821,70.0
8.822000000000001,70.0
8.823,70.0
8.824,70.2
8.825000000000001,70.2
8.826,70.4
8.827,70.4
8.828,70.4
8.829,70.4
8.83,70.2
8.831,70.4
8.832,70.6
8.833,70.8
8.834,70.6
8.835,70.6
8.836,70.6
8.837,70.6
8.838000000000001,70.8
8.839,70.8
8.84,70.8
8.841,70.8
8.842,70.8
8.843,71.0
8.844,70.8
8.845,71.0
8.846,71.2
8.847,71.2
8.848,71.0
8.849,71.2
8.85,71.4
8.851,71.0
8.852,71.0
8.853,71.4
8.854000000000001,71.6
8.855,71.6
8.856,71.6
8.857,71.2
8.858,71.2
8.859,71.6
8.86,71.4
8.861,71.4
8.862,71.8
8.863,71.6
8.864,71.8
8.865,71.6
8.866,72.0
8.867,71.8
8.868,72.0
8.869,72.0
8.870000000000001,71.6
8.871,71.8
8.872,71.8
8.873,72.0
8.874,72.0
8.875,72.0
8.876,72.2
8.877,72.0
8.878,72.2
8.879,72.2
8.88,72.0
8.881,72.2
8.882,72.2
8.883000000000001,72.2
8.884,72.2
8.885,72.0
8.886000000000001,72.4
8.887,72.2
8.888,72.4
8.889,72.2
8.89,72.2
8.891,72.2
8.892,72.4
8.893,72.4
8.894,72.4
8.895,72.6
8.896,72.4
8.897,72.6
8.898,72.6
8.899000000000001,72.4
8.9,72.4
8.901,72.6
8.902000000000001,72.6
8.903,72.4
8.904,72.4
8.905,72.8
8.906,72.8
8.907,72.6
8.908,72.4
8.909,72.6
8.91,72.6
8.911,72.6
8.912,72.8
8.913,72.8
8.914,72.6
8.915000000000001,72.6
8.916,72.8
8.917,72.6
8.918000000000001,72.8
8.919,72.8
8.92,72.8
8.921,72.8
8.922,72.6
8.923,72.8
8.924,72.8
8.925,73.0
8.926,73.0
8.927,72.8
8.928,72.8
8.929,72.6
8.93,72.6
8.931000000000001,72.8
8.932,72.8
8.933,72.8
8.934000000000001,72.8
8.935,72.8
8.936,72.8
8.937,72.8
8.938,72.8
8.939,72.8
8.94,72.8
8.941,72.8
8.942,72.8
8.943,72.6
8.944,72.8
8.945,72.8
8.946,72.8
8.947000000000001,72.8
8.948,72.6
8.949,72.8
8.950000000000001,72.8
8.951,72.8
8.952,72.8
8.953,73.0
8.954,72.8
8.955,72.8
8.956,72.6
8.957,72.6
8.958,72.8
8.959,72.6
8.96,72.4
8.961,72.8
8.962,72.4
8.963000000000001,72.6
8.964,72.4
8.965,72.6
8.966,72.4
8.967,72.6
8.968,72.6
8.969,72.4
8.97,72.4
8.971,72.4
8.972,72.4
8.973,72.2
8.974,72.4
8.975,72.4
8.976,72.4
8.977,72.2
8.978,72.4
8.979000000000001,72.2
8.98,72.4
8.981,72.2
8.982,72.2
8.983,72.4
8.984,72.0
8.985,72.2
8.986,72.2
8.987,72.0
8.988,72.2
8.989,72.2
8.99,72.2
8.991,72.0
8.992,72.0
8.993,72.0
8.994,72.0
8.995000000000001,72.0
8.996,72.0
8.997,71.8
8.998,71.8
8.999,71.6
9.0,71.8
9.001,71.8
9.002,71.8
9.003,71.8
9.004,71.6
9.005,72.0
9.006,72.0
9.007,71.4
9.008000000000001,71.4
9.009,71.4
9.01,71.4
9.011000000000001,71.6
9.012,71.6
9.013,71.4
9.014,71.2
9.015,71.4
9.016,71.2
9.017,71.4
9.018,71.2
9.019,71.0
9.02,71.2
9.021,71.0
9.022,71.0
9.023,70.8
9.024000000000001,71.0
9.025,71.0
9.026,70.8
9.027000000000001,70.6
9.028,70.8
9.029,70.8
9.03,70.6
9.031,70.8
9.032,70.6
9.033,70.6
9.034,70.6
9.035,70.4
9.036,70.4
9.037,70.4
9.038,70.4
9.039,70.4
9.040000000000001,70.4
9.041,70.2
9.042,70.2
9.043000000000001,70.4
9.044,70.4
9.045,70.2
9.046,70.0
9.047,70.0
9.048,69.8
9.049,69.6
9.05,70.0
9.051,69.6
9.052,69.8
9.053,69.8
9.054,69.8
9.055,69.6
9.056000000000001,69.6
9.057,69.6
9.058,69.4
9.059000000000001,69.4
9.06,69.2
9.061,69.4
9.062,69.2
9.063,69.2
9.064,69.2
9.065,69.0
9.066,69.2
9.067,69.2
9.068,68.8
9.069,69.0
9.07,68.8
9.071,68.8
9.072000000000001,68.8
9.073,68.8
9.074,68.8
9.075000000000001,68.8
9.076,68.8
9.077,68.4
9.078,68.6
9.079,68.6
9.08,68.4
9.081,68.4
9.082,68.4
9.083,68.2
9.084,68.4
9.085,68.0
9.086,68.2
9.087,68.0
9.088000000000001,68.0
9.089,68.0
9.09,67.8
9.091,68.0
9.092,67.8
9.093,67.8
9.094,67.8
9.095,67.6
9.096,67.8
9.097,67.6
9.098,67.6
9.099,67.6
9.1,67.6
9.101,67.4
9.102,67.4
9.103,67.4
9.104000000000001,67.2
9.105,67.4
9.106,67.2
9.107,67.2
9.108,67.0
9.109,67.2
9.11,67.0
9.111,67.0
9.112,67.0
9.113,67.0
9.114,66.8
9.115,66.8
9.116,66.8
9.117,66.8
9.118,66.6
9.119,66.6
9.120000000000001,66.4
9.121,66.4
9.122,66.6
9.123,66.6
9.124,66.4
9.125,66.4
9.126,66.2
9.127,66.2
9.128,66.2
9.129,66.2
9.13,66.4
9.131,66.0
9.132,66.0
9.133000000000001,66.0
9.134,66.0
9.135,66.2
9.136000000000001,65.8
9.137,65.8
9.138,66.0
9.139,65.6
9.14,65.8
9.141,65.6
9.142,65.8
9.143,65.8
9.144,65.6
9.145,65.6
9.146,65.8
9.147,65.6
9.148,65.6
9.149000000000001,65.4
9.15,65.2
9.151,65.4
9.152000000000001,65.2
9.153,65.2
9.154,65.0
9.155,65.0
9.156,65.2
9.157,65.0
9.158,64.8
9.159,65.2
9.16,65.0
9.161,64.8
9.162,64.8
9.163,65.2
9.164,64.8
9.165000000000001,64.8
9.166,65.0
9.167,64.8
9.168000000000001,64.8
9.169,64.6
9.17,64.8
9.171,64.6
9.172,64.8
9.173,64.8
9.174,64.6
9.175,64.6
9.176,64.4
9.177,64.4
9.178,64.6
9.179,64.4
9.18,64.4
9.181000000000001,64.2
9.182,64.2
9.183,64.2
9.184000000000001,64.2
9.185,64.2
9.186,64.2
9.187,64.2
9.188,64.4
9.189,64.4
9.19,64.2
9.191,64.0
9.192,64.4
9.193,64.4
9.194,64.2
9.195,64.2
9.196,64.0
9.197000000000001,64.0
9.198,64.0
9.199,64.2
9.200000000000001,64.0
9.201,64.0
9.202,64.0
9.203,64.0
9.204,64.2
9.205,63.8
9.206,64.0
9.207,64.0
9.208,63.8
9.209,64.2
9.21,64.0
9.211,64.2
9.212,63.8
9.213000000000001,64.0
9.214,64.2
9.215,64.2
9.216000000000001,63.8
9.217,63.8
9.218,64.0
9.219,63.8
9.22,63.8
9.221,63.8
9.222,64.0
9.223,63.8
9.224,63.8
9.225,63.6
9.226,63.6
9.227,63.8
9.228,64.0
9.229000000000001,64.0
9.23,64.0
9.231,63.6
9.232,63.8
9.233,63.8
9.234,64.0
9.235,63.8
9.236,63.8
9.237,64.0
9.238,63.8
9.239,64.0
9.24,63.8
9.241,64.0
9.242,64.0
9.243,63.8
9.244,64.2
9.245000000000001,64.0
9.246,63.8
9.247,64.0
9.248,63.8
9.249,63.8
9.25,63.8
9.251,64.0
9.252,63.8
9.253,64.0
9.254,63.8
9.255,63.8
9.256,64.0
9.257,64.0
9.258000000000001,64.0
9.259,64.0
9.26,64.0
9.261000000000001,64.2
9.262,64.2
9.263,64.0
9.264,64.2
9.265,64.0
9.266,64.0
9.267,63.8
9.268,64.0
9.269,64.0
9.27,64.0
9.271,64.2
9.272,64.2
9.273,64.2
9.274000000000001,64.2
9.275,64.4
9.276,64.0
9.277000000000001,64.2
9.278,64.4
9.279,64.4
9.28,64.2
9.281,64.2
9.282,64.4
9.283,64.2
9.284,64.4
9.285,64.4
9.286,64.4
9.287,64.2
9.288,64.6
9.289,64.4
9.290000000000001,64.6
9.291,64.6
9.292,64.6
9.293000000000001,64.6
9.294,64.4
9.295,64.4
9.296,64.4
9.297,64.8
9.298,64.8
9.299,64.6
9.3,64.6
9.301,64.6
9.302,64.8
9.303,64.6
9.304,64.6
9.305,64.6
9.306000000000001,64.6
9.307,64.8
9.308,65.0
9.309000000000001,65.0
9.31,65.0
9.311,65.0
9.312,65.2
9.313,65.0
9.314,65.0
9.315,65.0
9.316,65.0
9.317,65.2
9.318,65.2
9.319,65.0
9.32,65.2
9.321,65.2
9.322000000000001,65.2
9.323,65.2
9.324,65.0
9.325000000000001,65.2
9.326,65.2
9.327,65.4
9.328,65.4
9.329,65.8
9.33,65.4
9.331,65.6
9.332,65.4
9.333,65.6
9.334,65.6
9.335,65.6
9.336,65.8
9.337,65.6
9.338000000000001,65.8
9.339,65.8
9.34,65.8
9.341000000000001,66.0
9.342,65.8
9.343,65.8
9.344,66.0
9.345,66.2
9.346,65.8
9.347,66.2
9.348,66.0
9.349,66.4
9.35,66.4
9.351,66.4
9.352,66.2
9.353,66.2
9.354000000000001,66.4
9.355,66.2
9.356,66.2
9.357,66.6
9.358,66.6
9.359,66.4
9.36,66.4
9.361,66.6
9.362,66.6
9.363,66.6
9.364,66.8
9.365,66.8
9.366,66.8
9.367,66.8
9.368,67.0
9.369,67.0
9.370000000000001,67.0
9.371,67.0
9.372,67.0
9.373,67.2
9.374,67.4
9.375,67.2
9.376,67.4
9.377,67.4
9.378,67.4
9.379,67.4
9.38,67.2
9.381,67.6
9.382,67.6
9.383000000000001,67.6
9.384,67.8
9.385,67.6
9.386000000000001,67.8
9.387,67.8
9.388,67.8
9.389,68.0
9.39,68.0
9.391,68.0
9.392,68.0
9.393,68.0
9.394,68.0
9.395,68.0
9.396,68.2
9.397,68.4
9.398,68.2
9.399000000000001,68.6
9.4,68.2
9.401,68.6
9.402000000000001,68.4
9.403,68.4
9.404,68.6
9.405,68.8
9.406,68.6
9.407,68.6
9.408,68.8
9.409,68.8
9.41,68.8
9.411,68.8
9.412,69.0
9.413,69.2
9.414,69.0
9.415000000000001,69.2
9.416,69.2
9.417,69.2
9.418000000000001,69.2
9.419,69.2
9.42,69.2
9.421,69.4
9.422,69.6
9.423,69.4
9.424,69.6
9.425,69.6
9.426,69.8
9.427,69.8
9.428,70.0
9.429,69.6
9.43,69.8
9.431000000000001,69.8
9.432,70.0
9.433,70.0
9.434000000000001,70.0
9.435,70.4
9.436,70.0
9.437,70.2
9.438,70.2
9.439,70.4
9.44,70.4
9.441,70.6
9.442,70.4
9.443,70.6
9.444,70.4
9.445,70.4
9.446,70.8
9.447000000000001,70.6
9.448,70.8
9.449,70.8
9.450000000000001,70.8
9.451,70.6
9.452,70.6
9.453,71.0
9.454,70.8
9.455,70.8
9.456,71.0
9.457,71.0
9.458,71.0
9.459,71.2
9.46,71.2
9.461,71.0
9.462,71.2
9.463000000000001,71.2
9.464,71.0
9.465,71.0
9.466000000000001,71.2
9.467,71.4
9.468,71.2
9.469,71.6
9.47,71.6
9.471,71.4
9.472,71.4
9.473,71.6
9.474,71.4
9.475,71.6
9.476,71.6
9.477,71.6
9.478,71.6
9.479000000000001,71.8
9.48,72.0
9.481,71.6
9.482,71.8
9.483,71.8
9.484,72.0
9.485,72.0
9.486,72.0
9.487,71.8
9.488,72.0
9.489,72.0
9.49,72.0
9.491,72.0
9.492,72.0
9.493,72.0
9.494,72.0
9.495000000000001,72.2
9.496,72.2
9.497,72.2
9.498,72.2
9.499,72.2
9.5,72.4
9.501,72.4
9.502,72.2
9.503,72.2
9.504,72.4
9.505,72.2
9.506,72.4
9.507,72.6
9.508000000000001,72.4
9.509,72.2
9.51,72.4
9.511000000000001,72.6
9.512,72.6
9.513,72.6
9.514,72.4
9.515,72.6
9.516,72.4
9.517,72.6
9.518,72.6
9.519,72.6
9.52,72.8
9.521,72.8
9.522,72.6
9.523,72.6
9.524000000000001,72.6
9.525,72.8
9.526,72.6
9.527000000000001,72.8
9.528,72.8
9.529,72.6
9.53,72.8
9.531,72.8
9.532,72.8
9.533,72.6
9.534,72.6
9.535,72.8
9.536,72.8
9.537,72.8
9.538,72.8
9.539,72.8
9.540000000000001,73.0
9.541,73.0
9.542,73.0
9.543000000000001,72.8
9.544,72.6
9.545,72.8
9.546,72.8
9.547,72.8
9.548,72.8
9.549,72.8
9.55,72.6
9.551,72.8
9.552,72.8
9.553,72.8
9.554,72.8
9.555,72.8
9.556000000000001,72.8
9.557,72.8
9.558,72.8
9.559000000000001,72.8
9.56,72.6
9.561,72.8
9.562,72.8
9.563,72.8
9.564,72.6
9.565,72.8
9.566,72.8
9.567,72.6
9.568,72.8
9.569,72.8
9.57,72.6
9.571,72.8
9.572000000000001,72.8
9.573,72.6
9.574,72.8
9.575000000000001,72.6
9.576,72.6
9.577,72.6
9.578,72.4
9.579,72.6
9.58,72.2
9.581,72.6
9.582,72.4
9.583,72.4
9.584,72.4
9.585,72.4
9.586,72.2
9.587,72.6
9.588000000000001,72.6
9.589,72.4
9.59,72.6
9.591000000000001,72.2
9.592,72.4
9.593,72.2
9.594,72.4
9.595,72.4
9.596,72.2
9.597,72.0
9.598,72.4
9.599,72.2
9.6,72.2
9.601,72.0
9.602,71.8
9.603,71.8
9.604000000000001,72.0
9.605,72.2
9.606,72.0
9.607,72.0
9.608,72.0
9.609,72.0
9.61,72.0
9.611,72.0
9.612,72.0
9.613,71.8
9.614,71.6
9.615,71.6
9.616,71.4
9.617,71.4
9.618,72.0
9.619,71.6
9.620000000000001,71.8
9.621,71.4
9.622,71.4
9.623,71.4
9.624,71.4
9.625,71.4
9.626,71.4
9.627,71.2
9.628,71.4
9.629,71.2
9.63,71.4
9.631,71.2
9.632,71.0
9.633000000000001,71.2
9.634,71.0
9.635,70.8
9.636000000000001,70.8
9.637,71.2
9.638,71.0
9.639,71.0
9.64,71.0
9.641,70.8
9.642,71.0
9.643,70.6
9.644,70.8
9.645,70.6
9.646,70.8
9.647,70.8
9.648,70.4
9.649000000000001,70.4
9.65,70.4
9.651,70.6
9.652000000000001,70.4
9.653,70.2
9.654,70.4
9.655,70.2
9.656,70.2
9.657,70.4
9.658,70.4
9.659,70.0
9.66,70.0
9.661,70.0
9.662,70.0
9.663,69.8
9.664,69.8
9.665000000000001,69.8
9.666,69.8
9.667,69.8
9.668000000000001,69.8
9.669,69.6
9.67,69.8
9.671,69.6
9.672,69.4
9.673,69.4
9.674,69.2
9.675,69.2
9.676,69.4
9.677,69.2
9.678,69.0
9.679,69.0
9.68,69.2
9.681000000000001,69.0
9.682,69.0
9.683,69.0
9.684000000000001,69.0
9.685,68.8
9.686,68.8
9.687,68.8
9.688,68.8
9.689,68.6
9.69,68.4
9.691,68.6
9.692,68.4
9.693,68.4
9.694,68.4
9.695,68.4
9.696,68.4
9.697000000000001,68.4
9.698,68.4
9.699,68.4
9.700000000000001,68.0
9.701,68.2
9.702,68.0
9.703,67.8
9.704,68.0
9.705,67.8
9.706,67.8
9.707,67.8
9.708,67.8
9.709,67.8
9.71,67.8
9.711,67.6
9.712,67.4
9.713000000000001,67.4
9.714,67.6
9.715,67.4
9.716000000000001,67.4
9.717,67.4
9.718,67.4
9.719,67.2
9.72,67.2
9.721,67.2
9.722,67.2
9.723,67.0
9.724,67.0
9.725,67.0
9.726,67.0
9.727,66.8
9.728,66.8
9.729000000000001,66.8
9.73,66.6
9.731,66.8
9.732,66.6
9.733,66.4
9.734,66.4
9.735,66.6
9.736,66.6
9.737,66.4
9.738,66.6
9.739,66.4
9.74,66.4
9.741,66.4
9.742,66.2
9.743,66.2
9.744,66.0
9.745000000000001,66.2
9.746,66.0
9.747,66.0
9.748,65.8
9.749,65.8
9.75,66.0
9.751,65.8
9.752,65.8
9.753,65.8
9.754,65.6
9.755,65.4
9.756,65.8
9.757,65.6
9.758000000000001,65.4
9.759,65.6
9.76,65.6
9.761000000000001,65.2
9.762,65.2
9.763,65.2
9.764,65.4
9.765,65.2
9.766,65.2
9.767,65.2
9.768,65.0
9.769,65.0
9.77,65.0
9.771,65.0
9.772,65.0
9.773,65.0
9.774000000000001,65.0
9.775,64.8
9.776,64.6
9.777000000000001,65.0
9.778,64.8
9.779,64.8
9.78,64.8
9.781,64.6
9.782,64.6
9.783,64.8
9.784,64.6
9.785,64.6
9.786,64.6
9.787,64.6
9.788,64.6
9.789,64.4
9.790000000000001,64.4
9.791,64.2
9.792,64.4
9.793000000000001,64.6
9.794,64.2
9.795,64.2
9.796,64.4
9.797,64.4
9.798,64.2
9.799,64.2
9.8,64.0
9.801,64.0
9.802,64.0
9.803,64.2
9.804,64.2
9.805,64.2
9.806000000000001,64.2
9.807,64.2
9.808,64.2
9.809000000000001,64.2
9.81,64.2
9.811,64.0
9.812,64.2
9.813,64.0
9.814,64.0
9.815,64.0
9.816,64.2
9.817,64.0
9.818,64.2
9.819,64.0
9.82,63.8
9.821,64.0
9.822000000000001,64.2
9.823,64.0
9.824,64.0
9.825000000000001,63.8
9.826,63.8
9.827,64.0
9.828,64.0
9.829,63.8
9.83,63.8
9.831,63.8
9.832,64.0
9.833,63.8
9.834,64.0
9.835,64.0
9.836,64.0
9.837,64.0
9.838000000000001,63.8
9.839,64.0
9.84,64.0
9.841000000000001,63.8
9.842,63.8
9.843,63.8
9.844,64.0
9.845,64.0
9.846,63.8
9.847,63.8
9.848,63.8
9.849,64.2
9.85,63.8
9.851,63.8
9.852,63.8
9.853,63.8
9.854000000000001,63.8
9.855,63.8
9.856,63.8
9.857,63.8
9.858,63.8
9.859,64.0
9.86,63.8
9.861,63.8
9.862,64.0
9.863,64.2
9.864,64.0
9.865,64.0
9.866,64.2
9.867,63.8
9.868,63.8
9.869,64.2
9.870000000000001,64.2
9.871,64.2
9.872,64.2
9.873,64.2
9.874,64.0
9.875,63.8
9.876,64.2
9.877,64.0
9.878,64.2
9.879,64.0
9.88,64.0
9.881,64.2
9.882,64.2
9.883000000000001,64.0
9.884,64.2
9.885,64.4
9.886000000000001,64.2
9.887,64.2
9.888,64.2
9.889,64.2
9.89,64.0
9.891,64.2
9.892,64.4
9.893,64.2
9.894,64.2
9.895,64.4
9.896,64.4
9.897,64.2
9.898,64.2
9.899000000000001,64.4
9.9,64.2
9.901,64.4
9.902000000000001,64.4
9.903,64.6
9.904,64.6
9.905,64.2
9.906,64.6
9.907,64.4
9.908,64.8
9.909,64.6
9.91,64.6
9.911,64.8
9.912,64.6
9.913,64.6
9.914,64.8
9.915000000000001,64.8
9.916,64.8
9.917,64.8
9.918000000000001,64.6
9.919,64.6
9.92,64.8
9.921,65.0
9.922,65.0
9.923,64.8
9.924,65.0
9.925,64.8
9.926,65.0
9.927,64.8
9.928,65.0
9.929,65.0
9.93,65.2
9.931000000000001,65.0
9.932,65.0
9.933,65.2
9.934000000000001,65.2
9.935,65.2
9.936,65.4
9.937,65.2
9.938,65.4
9.939,65.4
9.94,65.0
9.941,65.6
9.942,65.2
9.943,65.6
9.944,65.8
9.945,65.6
9.946,65.4
9.947000000000001,65.4
9.948,65.8
9.949,65.6
9.950000000000001,65.6
9.951,65.8
9.952,65.6
9.953,65.8
9.954,66.0
9.955,66.0
9.956,65.8
9.957,66.0
9.958,66.0
9.959,65.8
9.96,66.0
9.961,66.0
9.962,66.2
9.963000000000001,66.4
9.964,66.2
9.965,66.4
9.966000000000001,66.4
9.967,66.4
9.968,66.4
9.969,66.4
9.97,66.4
9.971,66.6
9.972,66.4
9.973,66.4
9.974,66.6
9.975,66.6
9.976,66.6
9.977,66.8
9.978,66.8
9.979000000000001,66.8
9.98,67.0
9.981,67.0
9.982000000000001,66.8
9.983,67.2
9.984,67.0
9.985,67.0
9.986,67.2
9.987,67.0
9.988,67.2
9.989,67.2
9.99,67.2
9.991,67.4
9.992,67.4
9.993,67.6
9.994,67.6
9.995000000000001,67.4
9.996,67.6
9.997,67.6
9.998,67.8
9.999,67.8
