####### Preamble ##########################
#	byt_nr=1
#	bit_nr=8
#	encdg=BIN
#	bn_fmt=RI
#	byt_or=MSB
#	nr_pt=10000
#	wfid="Ch1, DC coupling, 5.0E0 V/div, 1.0E0 s/div, 10000 points, Sample mode"
#	pt_fmt=Y
#	xincr=1.0E-3
#	pt_off=0
#	xzero=-5.0E0
#	xunit="s"
#	ymult=2.0E-1
#	yzero=0.0E0
#	yoff=5.7E1
#	yunit="V"
#######  Cursor ##########################
#VBA;IND;"s";-3.68E0;-4.02E0;7.2E0;3.4E-1;CURSOR1;-5.2E0;2.0E0;8.8E0;-8.0E0;1.68E1;CURSOR1;"V";CURSOR1;CURSOR1X;-3.24E1;-2.08E1;9.6E0;4.32E1;RECT;0.0E0;0.0E0;0.0E0;0.0E0;0.0E0;0.0E0;9.9E37;9.9E37;9.9E37;9.9E37;9.9E37;9.9E37;9.9E37;9.9E37;9.9E37;9.9E37;9.9E37;9.9E37
#######  Data ##########################
#RIB;REF1;CH1;1;10000;1
# Delete the above lines to open in excel ######

Time [s],volts [V]
0.0,64.0
0.001,67.6
0.002,66.8
0.003,66.6
0.004,66.6
0.005,66.6
0.006,66.6
0.007,69.8
0.008,69.8
0.009000000000000001,69.8
0.01,69.4
0.011,69.6
0.012,69.4
0.013000000000000001,69.4
0.014,69.4
0.015,69.4
0.016,69.2
0.017,69.2
0.018000000000000002,69.2
0.019,69.2
0.02,69.2
0.021,69.0
0.022,69.0
0.023,69.0
0.024,69.0
0.025,68.8
0.026000000000000002,69.0
0.027,68.8
0.028,68.8
0.029,68.8
0.03,68.8
0.031,68.8
0.032,68.6
0.033,68.4
0.034,68.4
0.035,68.2
0.036000000000000004,68.2
0.037,68.4
0.038,68.4
0.039,68.2
0.04,68.2
0.041,68.2
0.042,68.0
0.043000000000000003,68.0
0.044,67.8
0.045,68.0
0.046,67.8
0.047,67.8
0.048,67.8
0.049,67.8
0.05,67.8
0.051000000000000004,67.6
0.052000000000000005,67.6
0.053,67.6
0.054,67.6
0.055,67.6
0.056,67.4
0.057,67.2
0.058,67.4
0.059000000000000004,67.2
0.06,67.4
0.061,67.2
0.062,67.0
0.063,67.0
0.064,67.2
0.065,67.0
0.066,67.0
0.067,66.8
0.068,66.8
0.069,66.8
0.07,66.8
0.07100000000000001,66.6
0.07200000000000001,66.8
0.073,66.6
0.074,66.4
0.075,66.4
0.076,66.2
0.077,66.4
0.078,66.4
0.079,66.2
0.08,66.4
0.081,66.4
0.082,66.4
0.083,66.2
0.084,66.2
0.085,66.2
0.08600000000000001,65.8
0.08700000000000001,66.0
0.088,66.0
0.089,66.0
0.09,65.8
0.091,66.0
0.092,65.8
0.093,65.8
0.094,65.8
0.095,65.8
0.096,65.4
0.097,65.8
0.098,65.6
0.099,65.6
0.1,65.4
0.101,65.4
0.10200000000000001,65.6
0.10300000000000001,65.6
0.10400000000000001,65.2
0.105,65.2
0.106,65.4
0.107,65.4
0.108,65.2
0.109,65.2
0.11,65.0
0.111,65.0
0.112,64.8
0.113,65.0
0.114,65.0
0.115,64.8
0.116,64.8
0.117,64.8
0.11800000000000001,64.8
0.11900000000000001,64.6
0.12,64.8
0.121,64.8
0.122,64.8
0.123,64.6
0.124,64.8
0.125,64.6
0.126,64.4
0.127,64.6
0.128,64.6
0.129,64.6
0.13,64.6
0.131,64.4
0.132,64.2
0.133,64.4
0.134,64.4
0.135,64.4
0.136,64.2
0.137,64.4
0.138,64.2
0.139,64.2
0.14,64.2
0.14100000000000001,64.2
0.14200000000000002,64.0
0.14300000000000002,64.2
0.14400000000000002,64.4
0.145,64.0
0.146,64.0
0.147,64.0
0.148,64.2
0.149,64.0
0.15,64.2
0.151,64.2
0.152,64.0
0.153,64.2
0.154,64.2
0.155,64.0
0.156,64.2
0.157,64.2
0.158,64.2
0.159,64.2
0.16,64.0
0.161,64.2
0.162,64.0
0.163,64.0
0.164,64.0
0.165,64.2
0.166,64.0
0.167,64.0
0.168,63.8
0.169,64.0
0.17,63.8
0.171,64.0
0.17200000000000001,64.0
0.17300000000000001,64.0
0.17400000000000002,63.6
0.17500000000000002,64.0
0.176,64.0
0.177,64.0
0.178,63.8
0.179,63.8
0.18,63.8
0.181,64.0
0.182,63.8
0.183,63.6
0.184,63.8
0.185,63.6
0.186,63.8
0.187,64.0
0.188,64.0
0.189,64.0
0.19,63.8
0.191,64.0
0.192,63.8
0.193,63.8
0.194,63.8
0.195,64.0
0.196,63.8
0.197,64.0
0.198,63.8
0.199,63.6
0.2,64.0
0.201,63.8
0.202,64.0
0.203,63.8
0.20400000000000001,63.8
0.20500000000000002,63.8
0.20600000000000002,64.0
0.20700000000000002,64.2
0.20800000000000002,64.0
0.209,63.8
0.21,64.0
0.211,64.2
0.212,64.2
0.213,64.0
0.214,63.8
0.215,64.2
0.216,64.0
0.217,64.0
0.218,64.0
0.219,64.2
0.22,64.2
0.221,64.2
0.222,64.2
0.223,64.2
0.224,64.2
0.225,64.0
0.226,64.2
0.227,64.2
0.228,64.2
0.229,64.2
0.23,64.4
0.231,64.2
0.232,64.2
0.233,64.4
0.234,64.2
0.23500000000000001,64.2
0.23600000000000002,64.2
0.23700000000000002,64.4
0.23800000000000002,64.2
0.23900000000000002,64.4
0.24,64.6
0.241,64.2
0.242,64.6
0.243,64.6
0.244,64.2
0.245,64.4
0.246,64.4
0.247,64.6
0.248,64.4
0.249,64.6
0.25,64.8
0.251,64.6
0.252,64.8
0.253,64.6
0.254,64.8
0.255,64.8
0.256,64.6
0.257,64.8
0.258,64.8
0.259,64.8
0.26,64.8
0.261,65.0
0.262,65.0
0.263,65.0
0.264,65.0
0.265,65.0
0.266,65.0
0.267,65.0
0.268,65.0
0.269,65.0
0.27,65.0
0.271,65.2
0.272,65.2
0.273,65.0
0.274,65.0
0.275,65.4
0.276,65.4
0.277,65.0
0.278,65.2
0.279,65.4
0.28,65.2
0.281,65.4
0.28200000000000003,65.2
0.28300000000000003,65.4
0.28400000000000003,65.4
0.28500000000000003,65.4
0.28600000000000003,65.6
0.28700000000000003,65.8
0.28800000000000003,65.8
0.289,65.4
0.29,65.8
0.291,65.8
0.292,65.8
0.293,65.8
0.294,65.8
0.295,66.0
0.296,65.8
0.297,65.8
0.298,65.8
0.299,66.0
0.3,66.2
0.301,66.2
0.302,66.0
0.303,66.0
0.304,66.2
0.305,66.4
0.306,66.4
0.307,66.4
0.308,66.2
0.309,66.2
0.31,66.6
0.311,66.4
0.312,66.6
0.313,66.6
0.314,66.6
0.315,66.4
0.316,66.6
0.317,66.6
0.318,66.8
0.319,66.8
0.32,66.8
0.321,66.8
0.322,67.0
0.323,67.0
0.324,67.0
0.325,67.2
0.326,66.8
0.327,67.2
0.328,67.2
0.329,67.2
0.33,67.2
0.331,67.2
0.332,67.4
0.333,67.4
0.334,67.4
0.335,67.6
0.336,67.6
0.337,67.4
0.338,67.6
0.339,67.8
0.34,67.6
0.341,67.8
0.342,68.0
0.343,67.8
0.34400000000000003,68.0
0.34500000000000003,67.8
0.34600000000000003,68.2
0.34700000000000003,68.0
0.34800000000000003,68.2
0.34900000000000003,68.2
0.35000000000000003,68.4
0.35100000000000003,68.4
0.352,68.2
0.353,68.4
0.354,68.2
0.355,68.4
0.356,68.6
0.357,68.6
0.358,68.6
0.359,68.8
0.36,68.6
0.361,68.8
0.362,68.8
0.363,68.8
0.364,68.8
0.365,69.0
0.366,69.0
0.367,69.0
0.368,69.0
0.369,69.2
0.37,69.2
0.371,69.2
0.372,69.2
0.373,69.2
0.374,69.4
0.375,69.4
0.376,69.4
0.377,69.4
0.378,69.6
0.379,69.8
0.38,69.6
0.381,69.6
0.382,69.6
0.383,69.8
0.384,69.8
0.385,70.0
0.386,70.0
0.387,70.0
0.388,69.8
0.389,70.2
0.39,70.2
0.391,70.2
0.392,70.4
0.393,70.2
0.394,70.4
0.395,70.4
0.396,70.4
0.397,70.2
0.398,70.4
0.399,70.6
0.4,70.6
0.401,70.4
0.402,70.4
0.403,70.6
0.404,70.8
0.405,70.8
0.406,70.6
0.40700000000000003,70.8
0.40800000000000003,70.8
0.40900000000000003,70.8
0.41000000000000003,71.0
0.41100000000000003,70.8
0.41200000000000003,70.8
0.41300000000000003,71.2
0.41400000000000003,71.2
0.41500000000000004,71.0
0.41600000000000004,71.0
0.417,71.2
0.418,71.2
0.419,71.2
0.42,71.4
0.421,71.2
0.422,71.4
0.423,71.2
0.424,71.4
0.425,71.4
0.426,71.6
0.427,71.6
0.428,71.6
0.429,71.6
0.43,71.4
0.431,71.6
0.432,71.8
0.433,71.8
0.434,72.0
0.435,71.8
0.436,71.8
0.437,72.0
0.438,72.0
0.439,71.8
0.44,72.0
0.441,72.0
0.442,71.8
0.443,72.0
0.444,71.8
0.445,72.2
0.446,72.2
0.447,72.2
0.448,72.2
0.449,72.2
0.45,72.2
0.451,72.4
0.452,72.2
0.453,72.2
0.454,72.4
0.455,72.4
0.456,72.4
0.457,72.2
0.458,72.4
0.459,72.2
0.46,72.4
0.461,72.4
0.462,72.4
0.463,72.6
0.464,72.4
0.465,72.4
0.466,72.4
0.467,72.6
0.468,72.6
0.46900000000000003,72.6
0.47000000000000003,72.6
0.47100000000000003,72.6
0.47200000000000003,72.4
0.47300000000000003,72.6
0.47400000000000003,72.8
0.47500000000000003,72.4
0.47600000000000003,72.6
0.47700000000000004,72.6
0.47800000000000004,72.6
0.47900000000000004,72.8
0.48,72.6
0.481,72.6
0.482,72.8
0.483,72.8
0.484,72.8
0.485,72.8
0.486,73.0
0.487,72.8
0.488,73.0
0.489,72.8
0.49,73.0
0.491,73.0
0.492,72.8
0.493,73.0
0.494,72.8
0.495,72.8
0.496,72.8
0.497,73.0
0.498,73.2
0.499,72.8
0.5,72.6
0.501,72.8
0.502,72.8
0.503,72.8
0.504,73.0
0.505,73.0
0.506,72.8
0.507,72.8
0.508,72.6
0.509,72.6
0.51,73.0
0.511,72.6
0.512,73.0
0.513,73.0
0.514,72.6
0.515,72.6
0.516,72.8
0.517,72.8
0.518,72.8
0.519,72.8
0.52,73.0
0.521,72.6
0.522,72.6
0.523,72.8
0.524,73.0
0.525,72.8
0.526,72.6
0.527,72.6
0.528,72.4
0.529,72.6
0.53,72.8
0.531,72.6
0.532,72.4
0.533,72.6
0.534,72.4
0.535,72.4
0.536,72.4
0.537,72.6
0.538,72.4
0.539,72.6
0.54,72.6
0.541,72.2
0.542,72.4
0.543,72.4
0.544,72.4
0.545,72.4
0.546,72.4
0.547,72.6
0.548,72.4
0.549,72.4
0.55,72.4
0.551,72.2
0.552,72.2
0.553,72.2
0.554,72.2
0.555,72.0
0.556,72.0
0.557,72.2
0.558,72.0
0.559,72.0
0.56,72.0
0.561,72.0
0.562,72.0
0.5630000000000001,72.0
0.5640000000000001,71.8
0.5650000000000001,71.8
0.5660000000000001,71.8
0.5670000000000001,72.0
0.5680000000000001,71.8
0.5690000000000001,71.8
0.5700000000000001,71.8
0.5710000000000001,71.8
0.5720000000000001,71.8
0.5730000000000001,71.6
0.5740000000000001,71.4
0.5750000000000001,71.4
0.5760000000000001,71.6
0.577,71.4
0.578,71.6
0.579,71.2
0.58,71.2
0.581,71.2
0.582,71.2
0.583,71.2
0.584,71.0
0.585,71.2
0.586,71.0
0.587,71.0
0.588,71.2
0.589,71.2
0.59,71.0
0.591,70.8
0.592,71.0
0.593,70.8
0.594,70.8
0.595,70.8
0.596,71.0
0.597,70.8
0.598,70.8
0.599,70.6
0.6,70.4
0.601,70.6
0.602,70.6
0.603,70.6
0.604,70.4
0.605,70.4
0.606,70.4
0.607,70.4
0.608,70.4
0.609,70.2
0.61,70.2
0.611,70.2
0.612,70.2
0.613,70.2
0.614,70.0
0.615,70.0
0.616,70.0
0.617,70.0
0.618,69.8
0.619,70.0
0.62,69.8
0.621,69.8
0.622,69.6
0.623,69.6
0.624,69.6
0.625,69.8
0.626,69.6
0.627,69.4
0.628,69.4
0.629,69.6
0.63,69.2
0.631,69.2
0.632,69.2
0.633,69.2
0.634,69.0
0.635,69.0
0.636,69.0
0.637,69.0
0.638,68.8
0.639,68.8
0.64,69.0
0.641,69.0
0.642,68.6
0.643,68.6
0.644,68.8
0.645,68.4
0.646,68.4
0.647,68.6
0.648,68.4
0.649,68.2
0.65,68.2
0.651,68.4
0.652,68.2
0.653,68.2
0.654,68.2
0.655,68.0
0.656,68.0
0.657,67.8
0.658,68.0
0.659,67.8
0.66,67.8
0.661,67.8
0.662,67.8
0.663,67.8
0.664,67.6
0.665,67.8
0.666,67.8
0.667,67.6
0.668,67.4
0.669,67.4
0.67,67.2
0.671,67.4
0.672,67.4
0.673,67.2
0.674,67.2
0.675,67.2
0.676,67.2
0.677,67.0
0.678,67.0
0.679,67.0
0.68,66.8
0.681,66.8
0.682,66.8
0.683,66.8
0.684,66.8
0.685,66.6
0.686,66.6
0.687,66.6
0.6880000000000001,66.6
0.6890000000000001,66.6
0.6900000000000001,66.4
0.6910000000000001,66.6
0.6920000000000001,66.2
0.6930000000000001,66.2
0.6940000000000001,66.2
0.6950000000000001,66.4
0.6960000000000001,66.2
0.6970000000000001,66.2
0.6980000000000001,65.8
0.6990000000000001,66.0
0.7000000000000001,66.2
0.7010000000000001,66.0
0.7020000000000001,66.0
0.7030000000000001,66.0
0.704,65.6
0.705,65.8
0.706,65.8
0.707,66.0
0.708,65.6
0.709,65.6
0.71,65.8
0.711,65.6
0.712,65.6
0.713,65.4
0.714,65.4
0.715,65.6
0.716,65.4
0.717,65.4
0.718,65.4
0.719,65.4
0.72,65.0
0.721,65.2
0.722,65.2
0.723,65.0
0.724,65.2
0.725,65.2
0.726,64.8
0.727,64.8
0.728,65.2
0.729,65.0
0.73,64.8
0.731,64.8
0.732,64.8
0.733,64.8
0.734,65.0
0.735,64.8
0.736,64.6
0.737,64.8
0.738,64.6
0.739,64.6
0.74,64.6
0.741,64.4
0.742,64.8
0.743,64.2
0.744,64.6
0.745,64.8
0.746,64.4
0.747,64.4
0.748,64.4
0.749,64.2
0.75,64.6
0.751,64.4
0.752,64.4
0.753,64.2
0.754,64.2
0.755,64.2
0.756,64.2
0.757,64.2
0.758,64.0
0.759,64.2
0.76,64.2
0.761,64.2
0.762,64.0
0.763,64.2
0.764,64.2
0.765,64.2
0.766,64.2
0.767,64.2
0.768,64.0
0.769,63.8
0.77,64.2
0.771,64.2
0.772,64.0
0.773,64.0
0.774,64.0
0.775,64.2
0.776,64.2
0.777,63.8
0.778,63.8
0.779,64.0
0.78,64.0
0.781,63.8
0.782,63.8
0.783,63.8
0.784,63.8
0.785,63.8
0.786,63.8
0.787,63.8
0.788,63.8
0.789,63.8
0.79,64.2
0.791,63.8
0.792,63.6
0.793,63.6
0.794,63.8
0.795,64.0
0.796,64.0
0.797,63.6
0.798,63.6
0.799,63.8
0.8,64.2
0.801,64.0
0.802,64.0
0.803,63.8
0.804,63.8
0.805,63.8
0.806,63.8
0.807,63.8
0.808,63.8
0.809,64.0
0.81,63.8
0.811,63.8
0.812,63.8
0.8130000000000001,64.0
0.8140000000000001,64.0
0.8150000000000001,63.8
0.8160000000000001,64.0
0.8170000000000001,64.0
0.8180000000000001,64.0
0.8190000000000001,64.0
0.8200000000000001,64.0
0.8210000000000001,63.8
0.8220000000000001,63.8
0.8230000000000001,64.0
0.8240000000000001,64.0
0.8250000000000001,63.8
0.8260000000000001,63.8
0.8270000000000001,64.2
0.8280000000000001,64.0
0.8290000000000001,63.8
0.8300000000000001,64.0
0.8310000000000001,64.0
0.8320000000000001,63.8
0.833,64.2
0.834,64.2
0.835,64.0
0.836,64.2
0.837,64.4
0.838,64.2
0.839,64.0
0.84,64.0
0.841,64.4
0.842,64.0
0.843,64.4
0.844,64.2
0.845,64.2
0.846,64.2
0.847,64.2
0.848,64.4
0.849,64.4
0.85,64.4
0.851,64.2
0.852,64.4
0.853,64.0
0.854,64.6
0.855,64.4
0.856,64.6
0.857,64.4
0.858,64.6
0.859,64.6
0.86,64.6
0.861,64.6
0.862,64.6
0.863,64.6
0.864,64.8
0.865,64.6
0.866,64.6
0.867,64.4
0.868,64.6
0.869,64.8
0.87,64.6
0.871,64.6
0.872,64.8
0.873,64.6
0.874,64.6
0.875,65.0
0.876,65.0
0.877,64.6
0.878,64.8
0.879,65.0
0.88,65.0
0.881,65.0
0.882,65.2
0.883,65.2
0.884,65.0
0.885,65.0
0.886,65.2
0.887,65.2
0.888,65.2
0.889,65.2
0.89,65.2
0.891,65.2
0.892,65.4
0.893,65.2
0.894,65.2
0.895,65.4
0.896,65.4
0.897,65.2
0.898,65.2
0.899,65.6
0.9,65.4
0.901,65.8
0.902,65.6
0.903,65.6
0.904,65.6
0.905,65.8
0.906,65.6
0.907,65.6
0.908,65.8
0.909,65.8
0.91,65.8
0.911,65.8
0.912,66.2
0.913,66.0
0.914,66.0
0.915,66.0
0.916,66.2
0.917,66.2
0.918,66.0
0.919,66.2
0.92,66.2
0.921,66.4
0.922,66.4
0.923,66.4
0.924,66.2
0.925,66.6
0.926,66.6
0.927,66.6
0.928,66.6
0.929,66.8
0.93,66.6
0.931,66.8
0.932,66.8
0.933,66.8
0.934,66.8
0.935,67.0
0.936,66.8
0.937,67.0
0.9380000000000001,67.0
0.9390000000000001,67.2
0.9400000000000001,67.2
0.9410000000000001,67.2
0.9420000000000001,67.4
0.9430000000000001,67.4
0.9440000000000001,67.4
0.9450000000000001,67.4
0.9460000000000001,67.4
0.9470000000000001,67.2
0.9480000000000001,67.4
0.9490000000000001,67.6
0.9500000000000001,67.6
0.9510000000000001,67.6
0.9520000000000001,67.4
0.9530000000000001,67.6
0.9540000000000001,67.6
0.9550000000000001,67.8
0.9560000000000001,67.8
0.9570000000000001,68.0
0.9580000000000001,68.0
0.9590000000000001,68.0
0.96,68.0
0.961,68.2
0.962,68.2
0.963,68.2
0.964,68.2
0.965,68.4
0.966,68.4
0.967,68.2
0.968,68.4
0.969,68.4
0.97,68.4
0.971,68.6
0.972,68.6
0.973,68.8
0.974,68.8
0.975,68.8
0.976,68.8
0.977,68.8
0.978,68.8
0.979,69.0
0.98,68.8
0.981,69.0
0.982,69.0
0.983,69.0
0.984,69.2
0.985,69.2
0.986,69.2
0.987,69.2
0.988,69.2
0.989,69.4
0.99,69.4
0.991,69.6
0.992,69.4
0.993,69.6
0.994,69.8
0.995,69.4
0.996,69.6
0.997,69.6
0.998,70.0
0.999,70.0
1.0,70.0
1.0010000000000001,70.0
1.002,70.0
1.0030000000000001,70.0
1.004,70.2
1.0050000000000001,70.2
1.006,70.2
1.0070000000000001,70.4
1.008,70.4
1.0090000000000001,70.2
1.01,70.2
1.0110000000000001,70.4
1.012,70.6
1.0130000000000001,70.6
1.014,70.8
1.0150000000000001,70.6
1.016,70.8
1.0170000000000001,70.4
1.018,70.8
1.0190000000000001,70.8
1.02,70.8
1.0210000000000001,70.8
1.022,70.8
1.0230000000000001,70.8
1.024,71.0
1.025,71.0
1.026,71.0
1.027,71.0
1.028,71.2
1.029,71.2
1.03,71.0
1.031,71.2
1.032,71.2
1.033,71.2
1.034,71.2
1.035,71.4
1.036,71.4
1.037,71.2
1.038,71.2
1.039,71.4
1.04,71.4
1.041,71.6
1.042,71.8
1.043,71.6
1.044,71.6
1.045,71.6
1.046,71.6
1.047,71.8
1.048,71.8
1.049,72.0
1.05,72.0
1.051,71.4
1.052,72.0
1.053,71.8
1.054,72.0
1.055,71.8
1.056,72.0
1.057,72.0
1.058,72.0
1.059,72.0
1.06,72.2
1.061,72.2
1.062,72.2
1.063,72.0
1.064,72.0
1.065,72.0
1.066,72.0
1.067,72.2
1.068,72.4
1.069,72.2
1.07,72.2
1.071,72.6
1.072,72.4
1.073,72.4
1.074,72.2
1.075,72.4
1.076,72.4
1.077,72.4
1.078,72.4
1.079,72.6
1.08,72.6
1.081,72.4
1.082,72.6
1.083,72.6
1.084,72.6
1.085,72.6
1.086,72.6
1.087,72.6
1.088,72.6
1.089,72.6
1.09,72.4
1.091,72.6
1.092,72.6
1.093,72.8
1.094,72.6
1.095,72.6
1.096,72.6
1.097,72.8
1.098,73.0
1.099,72.8
1.1,72.8
1.101,72.8
1.102,72.8
1.103,72.8
1.104,72.8
1.105,72.8
1.106,73.0
1.107,72.8
1.108,73.0
1.109,72.8
1.11,72.8
1.111,72.8
1.112,72.8
1.113,72.8
1.114,73.0
1.115,72.8
1.116,72.6
1.117,73.0
1.118,72.8
1.119,72.8
1.12,72.8
1.121,73.0
1.122,72.6
1.123,72.8
1.124,73.0
1.125,72.8
1.1260000000000001,72.6
1.127,72.8
1.1280000000000001,72.8
1.129,72.6
1.1300000000000001,72.8
1.131,73.0
1.1320000000000001,72.8
1.133,72.8
1.1340000000000001,72.6
1.135,72.6
1.1360000000000001,72.6
1.137,72.8
1.1380000000000001,72.6
1.139,72.8
1.1400000000000001,72.6
1.141,72.8
1.1420000000000001,72.6
1.143,72.6
1.1440000000000001,72.6
1.145,72.8
1.1460000000000001,72.6
1.147,72.6
1.1480000000000001,72.6
1.149,72.6
1.1500000000000001,72.2
1.151,72.6
1.1520000000000001,72.4
1.153,72.4
1.154,72.4
1.155,72.4
1.156,72.6
1.157,72.4
1.158,72.2
1.159,72.4
1.16,72.4
1.161,72.4
1.162,72.4
1.163,72.2
1.164,72.2
1.165,72.2
1.166,72.2
1.167,72.2
1.168,72.0
1.169,72.0
1.17,72.0
1.171,72.0
1.172,72.0
1.173,72.0
1.174,71.8
1.175,71.8
1.176,71.8
1.177,72.0
1.178,72.0
1.179,72.0
1.18,71.8
1.181,72.0
1.182,71.6
1.183,71.8
1.184,72.0
1.185,71.4
1.186,71.6
1.187,71.6
1.188,71.6
1.189,71.2
1.19,71.6
1.191,71.6
1.192,71.4
1.193,71.4
1.194,71.2
1.195,71.2
1.196,71.4
1.197,71.4
1.198,71.2
1.199,71.2
1.2,71.0
1.201,71.0
1.202,71.2
1.203,71.0
1.204,70.8
1.205,71.0
1.206,70.8
1.207,70.8
1.208,70.8
1.209,71.0
1.21,70.8
1.211,70.8
1.212,71.0
1.213,70.8
1.214,70.6
1.215,70.4
1.216,70.8
1.217,70.2
1.218,70.8
1.219,70.6
1.22,70.4
1.221,70.2
1.222,70.2
1.223,70.4
1.224,70.0
1.225,70.0
1.226,70.2
1.227,70.2
1.228,70.0
1.229,70.2
1.23,70.0
1.231,69.8
1.232,70.0
1.233,69.8
1.234,69.8
1.235,69.6
1.236,69.6
1.237,69.6
1.238,69.6
1.239,69.8
1.24,69.4
1.241,69.4
1.242,69.2
1.243,69.4
1.244,69.2
1.245,69.0
1.246,69.2
1.247,69.0
1.248,69.0
1.249,69.0
1.25,69.0
1.2510000000000001,68.8
1.252,69.0
1.2530000000000001,68.8
1.254,68.8
1.2550000000000001,68.8
1.256,68.8
1.2570000000000001,68.6
1.258,68.4
1.2590000000000001,68.4
1.26,68.4
1.2610000000000001,68.4
1.262,68.4
1.2630000000000001,68.4
1.264,68.2
1.2650000000000001,68.2
1.266,68.2
1.2670000000000001,68.2
1.268,68.2
1.2690000000000001,68.0
1.27,68.0
1.2710000000000001,68.0
1.272,67.8
1.2730000000000001,68.0
1.274,67.8
1.2750000000000001,67.6
1.276,67.8
1.2770000000000001,67.6
1.278,67.6
1.2790000000000001,67.6
1.28,67.6
1.281,67.6
1.282,67.4
1.283,67.4
1.284,67.2
1.285,67.4
1.286,67.2
1.287,67.0
1.288,67.2
1.289,67.2
1.29,67.0
1.291,67.0
1.292,66.8
1.293,67.0
1.294,66.8
1.295,66.8
1.296,66.8
1.297,66.8
1.298,66.6
1.299,66.8
1.3,66.8
1.301,66.4
1.302,66.6
1.303,66.2
1.304,66.4
1.305,66.4
1.306,66.2
1.307,66.2
1.308,66.4
1.309,66.2
1.31,66.2
1.311,66.2
1.312,66.0
1.313,66.0
1.314,66.0
1.315,66.0
1.316,65.8
1.317,66.0
1.318,65.8
1.319,65.8
1.32,65.8
1.321,65.6
1.322,65.8
1.323,65.6
1.324,65.6
1.325,65.6
1.326,65.6
1.327,65.4
1.328,65.8
1.329,65.4
1.33,65.4
1.331,65.4
1.332,65.4
1.333,65.2
1.334,65.2
1.335,65.0
1.336,65.2
1.337,65.2
1.338,65.2
1.339,65.2
1.34,65.0
1.341,65.2
1.342,65.0
1.343,65.0
1.344,64.8
1.345,65.0
1.346,64.8
1.347,65.0
1.348,64.6
1.349,64.8
1.35,64.6
1.351,64.8
1.352,64.4
1.353,64.6
1.354,64.6
1.355,64.6
1.356,64.6
1.357,64.4
1.358,64.6
1.359,64.6
1.36,64.4
1.361,64.6
1.362,64.2
1.363,64.2
1.364,64.4
1.365,64.4
1.366,64.0
1.367,64.2
1.368,64.2
1.369,64.4
1.37,64.2
1.371,64.0
1.372,64.0
1.373,64.0
1.374,64.2
1.375,64.2
1.3760000000000001,64.2
1.377,64.2
1.3780000000000001,64.2
1.379,64.2
1.3800000000000001,64.2
1.381,64.2
1.3820000000000001,64.2
1.383,64.0
1.3840000000000001,64.2
1.385,64.0
1.3860000000000001,64.0
1.387,64.0
1.3880000000000001,64.2
1.389,64.0
1.3900000000000001,64.0
1.391,64.0
1.3920000000000001,63.8
1.393,64.0
1.3940000000000001,64.0
1.395,64.0
1.3960000000000001,64.0
1.397,64.0
1.3980000000000001,63.8
1.399,64.0
1.4000000000000001,63.8
1.401,63.8
1.4020000000000001,63.8
1.403,63.8
1.4040000000000001,63.8
1.405,63.8
1.4060000000000001,63.8
1.407,64.0
1.408,64.0
1.409,63.8
1.41,64.0
1.411,63.8
1.412,64.2
1.413,63.6
1.414,63.8
1.415,63.6
1.416,63.8
1.417,63.8
1.418,64.0
1.419,63.6
1.42,63.8
1.421,64.0
1.422,64.0
1.423,63.6
1.424,63.8
1.425,63.8
1.426,63.8
1.427,64.0
1.428,64.0
1.429,63.8
1.43,63.8
1.431,64.0
1.432,63.8
1.433,63.8
1.434,63.8
1.435,63.8
1.436,63.8
1.437,64.0
1.438,64.2
1.439,64.0
1.44,64.0
1.441,64.0
1.442,64.0
1.443,64.2
1.444,64.2
1.445,64.0
1.446,64.2
1.447,64.0
1.448,64.0
1.449,64.0
1.45,64.2
1.451,64.0
1.452,64.2
1.453,64.2
1.454,64.2
1.455,64.0
1.456,64.2
1.457,64.0
1.458,64.2
1.459,64.2
1.46,64.2
1.461,64.2
1.462,64.2
1.463,64.4
1.464,64.6
1.465,64.2
1.466,64.4
1.467,64.4
1.468,64.4
1.469,64.4
1.47,64.2
1.471,64.4
1.472,64.4
1.473,64.4
1.474,64.6
1.475,64.6
1.476,64.6
1.477,64.4
1.478,64.6
1.479,64.8
1.48,64.6
1.481,64.8
1.482,64.6
1.483,64.8
1.484,64.6
1.485,64.6
1.486,64.8
1.487,65.0
1.488,64.8
1.489,65.0
1.49,64.8
1.491,64.8
1.492,64.8
1.493,65.0
1.494,65.0
1.495,65.0
1.496,65.2
1.497,65.0
1.498,65.0
1.499,65.0
1.5,65.2
1.5010000000000001,65.0
1.502,65.2
1.5030000000000001,65.2
1.504,65.2
1.5050000000000001,65.2
1.506,65.2
1.5070000000000001,65.4
1.508,65.4
1.5090000000000001,65.4
1.51,65.4
1.5110000000000001,65.4
1.512,65.4
1.5130000000000001,65.6
1.514,65.6
1.5150000000000001,65.8
1.516,65.8
1.5170000000000001,65.8
1.518,65.6
1.5190000000000001,65.6
1.52,66.0
1.5210000000000001,65.8
1.522,65.8
1.5230000000000001,66.0
1.524,66.0
1.5250000000000001,65.8
1.526,66.0
1.5270000000000001,66.2
1.528,66.0
1.5290000000000001,66.2
1.53,66.4
1.5310000000000001,66.0
1.532,66.2
1.5330000000000001,66.0
1.534,66.4
1.5350000000000001,66.2
1.536,66.4
1.537,66.4
1.538,66.4
1.539,66.6
1.54,66.6
1.541,66.6
1.542,66.8
1.543,66.6
1.544,66.8
1.545,66.8
1.546,66.8
1.547,66.6
1.548,66.8
1.549,67.0
1.55,67.0
1.551,66.8
1.552,67.0
1.553,67.2
1.554,67.0
1.555,67.2
1.556,67.2
1.557,67.4
1.558,67.2
1.559,67.4
1.56,67.4
1.561,67.4
1.562,67.6
1.563,67.6
1.564,67.6
1.565,67.8
1.566,67.6
1.567,67.8
1.568,67.8
1.569,67.8
1.57,68.0
1.571,67.8
1.572,68.0
1.573,68.0
1.574,68.0
1.575,68.2
1.576,68.0
1.577,68.2
1.578,68.2
1.579,68.4
1.58,68.4
1.581,68.4
1.582,68.4
1.583,68.6
1.584,68.6
1.585,68.6
1.586,68.6
1.587,68.6
1.588,68.8
1.589,68.8
1.59,68.8
1.591,68.8
1.592,68.8
1.593,69.0
1.594,69.0
1.595,69.0
1.596,69.0
1.597,69.2
1.598,69.0
1.599,69.2
1.6,69.2
1.601,69.4
1.602,69.0
1.603,69.4
1.604,69.2
1.605,69.6
1.606,69.6
1.607,69.8
1.608,69.8
1.609,69.8
1.61,70.0
1.611,69.6
1.612,70.0
1.613,69.8
1.614,70.0
1.615,70.0
1.616,70.0
1.617,70.0
1.618,70.0
1.619,70.4
1.62,70.2
1.621,70.2
1.622,70.4
1.623,70.4
1.624,70.4
1.625,70.6
1.6260000000000001,70.4
1.627,70.6
1.6280000000000001,70.6
1.629,70.6
1.6300000000000001,70.4
1.631,70.8
1.6320000000000001,70.6
1.633,70.8
1.6340000000000001,70.8
1.635,70.8
1.6360000000000001,71.0
1.637,70.8
1.6380000000000001,71.0
1.639,71.2
1.6400000000000001,71.0
1.641,71.0
1.6420000000000001,71.2
1.643,71.2
1.6440000000000001,71.2
1.645,71.0
1.6460000000000001,71.2
1.647,71.2
1.6480000000000001,71.4
1.649,71.4
1.6500000000000001,71.4
1.651,71.4
1.6520000000000001,71.6
1.653,71.2
1.6540000000000001,71.6
1.655,71.6
1.6560000000000001,72.0
1.657,71.4
1.6580000000000001,71.8
1.659,71.8
1.6600000000000001,71.6
1.661,71.8
1.6620000000000001,71.8
1.663,71.8
1.6640000000000001,71.8
1.665,72.0
1.666,72.0
1.667,72.0
1.668,71.8
1.669,71.8
1.67,72.0
1.671,71.8
1.672,72.0
1.673,72.2
1.674,72.2
1.675,72.2
1.676,72.2
1.677,72.2
1.678,72.2
1.679,72.4
1.68,72.2
1.681,72.2
1.682,72.2
1.683,72.2
1.684,72.2
1.685,72.4
1.686,72.4
1.687,72.4
1.688,72.2
1.689,72.2
1.69,72.4
1.691,72.6
1.692,72.6
1.693,72.8
1.694,72.6
1.695,72.6
1.696,72.6
1.697,72.6
1.698,72.8
1.699,72.6
1.7,72.6
1.701,72.6
1.702,72.4
1.703,72.6
1.704,72.6
1.705,72.6
1.706,72.8
1.707,72.8
1.708,72.6
1.709,72.8
1.71,72.6
1.711,72.8
1.712,72.8
1.713,72.6
1.714,73.0
1.715,72.8
1.716,72.8
1.717,72.8
1.718,72.8
1.719,72.8
1.72,72.8
1.721,73.0
1.722,72.8
1.723,73.0
1.724,73.0
1.725,72.8
1.726,72.6
1.727,73.0
1.728,72.8
1.729,72.6
1.73,72.8
1.731,72.8
1.732,72.8
1.733,72.8
1.734,73.0
1.735,73.0
1.736,72.8
1.737,72.8
1.738,73.0
1.739,73.0
1.74,72.8
1.741,72.8
1.742,72.8
1.743,72.8
1.744,72.6
1.745,72.8
1.746,72.6
1.747,72.8
1.748,72.8
1.749,72.8
1.75,72.8
1.7510000000000001,72.8
1.752,72.6
1.7530000000000001,72.8
1.754,72.6
1.7550000000000001,72.8
1.756,72.6
1.7570000000000001,72.6
1.758,72.6
1.7590000000000001,72.4
1.76,72.8
1.7610000000000001,72.6
1.762,72.4
1.7630000000000001,72.4
1.764,72.6
1.7650000000000001,72.4
1.766,72.6
1.7670000000000001,72.4
1.768,72.2
1.7690000000000001,72.4
1.77,72.2
1.7710000000000001,72.4
1.772,72.4
1.7730000000000001,72.4
1.774,72.2
1.7750000000000001,72.4
1.776,72.4
1.7770000000000001,72.6
1.778,72.2
1.7790000000000001,72.2
1.78,72.2
1.7810000000000001,72.2
1.782,72.2
1.7830000000000001,72.0
1.784,72.0
1.7850000000000001,72.0
1.786,72.2
1.7870000000000001,71.8
1.788,71.8
1.7890000000000001,71.8
1.79,72.0
1.7910000000000001,72.0
1.792,72.0
1.793,71.8
1.794,71.8
1.795,71.8
1.796,71.8
1.797,71.8
1.798,71.6
1.799,71.8
1.8,71.4
1.801,71.8
1.802,71.6
1.803,71.4
1.804,71.6
1.805,71.4
1.806,71.4
1.807,71.6
1.808,71.4
1.809,71.0
1.81,71.2
1.811,71.0
1.812,71.4
1.813,71.0
1.814,71.2
1.815,71.0
1.816,71.2
1.817,71.2
1.818,71.0
1.819,70.8
1.82,71.0
1.821,70.8
1.822,70.8
1.823,71.0
1.824,71.0
1.825,70.6
1.826,70.8
1.827,70.8
1.828,70.4
1.829,70.4
1.83,70.4
1.831,70.6
1.832,70.4
1.833,70.4
1.834,70.6
1.835,70.2
1.836,70.4
1.837,70.4
1.838,70.2
1.839,70.4
1.84,70.4
1.841,70.4
1.842,70.2
1.843,69.8
1.844,70.0
1.845,69.8
1.846,70.0
1.847,69.8
1.848,69.8
1.849,69.8
1.85,69.6
1.851,69.6
1.852,69.6
1.853,69.4
1.854,69.4
1.855,69.6
1.856,69.2
1.857,69.4
1.858,69.2
1.859,69.2
1.86,69.2
1.861,69.2
1.862,69.0
1.863,69.0
1.864,69.0
1.865,69.0
1.866,68.8
1.867,69.0
1.868,68.8
1.869,68.8
1.87,68.8
1.871,68.6
1.872,68.4
1.873,68.4
1.874,68.4
1.875,68.4
1.8760000000000001,68.4
1.877,68.4
1.8780000000000001,68.2
1.879,68.2
1.8800000000000001,68.2
1.881,68.2
1.8820000000000001,68.0
1.883,68.2
1.8840000000000001,68.0
1.885,68.0
1.8860000000000001,67.8
1.887,67.8
1.8880000000000001,67.8
1.889,67.8
1.8900000000000001,67.8
1.891,67.8
1.8920000000000001,67.6
1.893,67.8
1.8940000000000001,67.6
1.895,67.6
1.8960000000000001,67.4
1.897,67.2
1.8980000000000001,67.4
1.899,67.4
1.9000000000000001,67.2
1.901,67.0
1.9020000000000001,67.2
1.903,67.2
1.9040000000000001,67.0
1.905,67.0
1.9060000000000001,67.0
1.907,67.0
1.9080000000000001,66.8
1.909,66.8
1.9100000000000001,66.8
1.911,66.8
1.9120000000000001,66.6
1.913,66.6
1.9140000000000001,66.4
1.915,66.6
1.9160000000000001,66.6
1.917,66.4
1.9180000000000001,66.2
1.919,66.4
1.92,66.4
1.921,66.2
1.922,66.2
1.923,66.2
1.924,66.2
1.925,66.2
1.926,66.2
1.927,65.8
1.928,66.0
1.929,66.0
1.93,66.0
1.931,65.8
1.932,65.8
1.933,66.0
1.934,65.8
1.935,65.8
1.936,65.8
1.937,65.6
1.938,65.8
1.939,65.6
1.94,65.8
1.941,65.6
1.942,65.4
1.943,65.4
1.944,65.2
1.945,65.4
1.946,65.2
1.947,65.2
1.948,65.2
1.949,65.2
1.95,65.0
1.951,65.2
1.952,65.2
1.953,65.0
1.954,65.0
1.955,65.0
1.956,65.0
1.957,64.8
1.958,64.8
1.959,65.0
1.96,64.6
1.961,64.6
1.962,65.0
1.963,64.8
1.964,64.8
1.965,64.6
1.966,64.6
1.967,64.6
1.968,64.6
1.969,64.6
1.97,64.6
1.971,64.4
1.972,64.4
1.973,64.4
1.974,64.6
1.975,64.6
1.976,64.4
1.977,64.2
1.978,64.4
1.979,64.2
1.98,64.2
1.981,64.2
1.982,64.4
1.983,64.4
1.984,64.2
1.985,64.0
1.986,64.0
1.987,64.0
1.988,64.2
1.989,64.2
1.99,64.2
1.991,64.0
1.992,64.0
1.993,64.0
1.994,64.2
1.995,64.2
1.996,64.0
1.997,64.0
1.998,64.0
1.999,64.0
2.0,64.0
2.001,64.0
2.0020000000000002,64.2
2.003,64.2
2.004,64.2
2.005,64.0
2.0060000000000002,64.0
2.007,63.8
2.008,64.2
2.009,64.0
2.0100000000000002,64.0
2.011,64.0
2.012,64.0
2.013,63.6
2.0140000000000002,63.8
2.015,64.0
2.016,63.8
2.017,63.8
2.0180000000000002,64.0
2.019,63.8
2.02,64.0
2.021,64.2
2.0220000000000002,64.2
2.023,63.8
2.024,64.0
2.025,64.0
2.0260000000000002,63.6
2.027,63.6
2.028,63.6
2.029,63.8
2.0300000000000002,63.8
2.031,63.8
2.032,64.0
2.033,63.8
2.0340000000000003,64.0
2.035,64.0
2.036,64.0
2.037,63.8
2.0380000000000003,64.0
2.039,64.0
2.04,64.0
2.041,63.6
2.0420000000000003,64.2
2.043,64.0
2.044,64.0
2.045,63.8
2.0460000000000003,64.0
2.047,64.0
2.048,64.0
2.049,64.0
2.05,64.0
2.051,64.2
2.052,64.2
2.053,64.0
2.054,64.0
2.055,63.8
2.056,64.0
2.057,64.2
2.058,64.2
2.059,64.0
2.06,64.0
2.061,64.2
2.062,64.2
2.063,64.2
2.064,64.2
2.065,64.0
2.066,64.2
2.067,64.2
2.068,64.2
2.069,64.2
2.07,64.2
2.071,64.2
2.072,64.4
2.073,64.2
2.074,64.4
2.075,64.2
2.076,64.2
2.077,64.2
2.078,64.2
2.079,64.4
2.08,64.4
2.081,64.4
2.082,64.4
2.083,64.4
2.084,64.4
2.085,64.2
2.086,64.4
2.087,64.4
2.088,64.4
2.089,64.6
2.09,64.4
2.091,64.6
2.092,64.4
2.093,64.6
2.094,64.8
2.095,64.6
2.096,64.8
2.097,64.6
2.098,64.6
2.099,64.6
2.1,65.0
2.101,65.0
2.102,65.0
2.103,64.8
2.104,64.8
2.105,65.0
2.106,64.8
2.107,65.0
2.108,64.8
2.109,65.2
2.11,65.0
2.111,65.2
2.112,64.8
2.113,65.2
2.114,65.2
2.115,65.2
2.116,65.0
2.117,65.4
2.118,65.2
2.119,65.2
2.12,65.4
2.121,65.6
2.122,65.4
2.123,65.6
2.124,65.8
2.125,65.4
2.126,65.6
2.1270000000000002,65.4
2.128,65.8
2.129,65.6
2.13,65.4
2.1310000000000002,65.8
2.132,65.6
2.133,65.8
2.134,65.8
2.1350000000000002,65.8
2.136,66.0
2.137,66.0
2.138,66.0
2.1390000000000002,66.0
2.14,65.8
2.141,66.0
2.142,66.0
2.1430000000000002,66.2
2.144,66.2
2.145,66.2
2.146,66.2
2.1470000000000002,66.4
2.148,66.2
2.149,66.4
2.15,66.4
2.1510000000000002,66.6
2.152,66.6
2.153,66.4
2.154,66.4
2.1550000000000002,66.6
2.156,66.8
2.157,66.6
2.158,66.8
2.1590000000000003,66.8
2.16,67.0
2.161,66.8
2.162,66.8
2.1630000000000003,67.0
2.164,67.0
2.165,67.0
2.166,67.0
2.1670000000000003,67.0
2.168,67.0
2.169,67.2
2.17,67.4
2.1710000000000003,67.2
2.172,67.4
2.173,67.4
2.174,67.4
2.1750000000000003,67.4
2.176,67.4
2.177,67.8
2.178,67.6
2.179,67.6
2.18,67.6
2.181,67.6
2.182,68.0
2.183,68.0
2.184,67.8
2.185,68.0
2.186,68.0
2.187,68.0
2.188,68.0
2.189,68.2
2.19,68.2
2.191,68.2
2.192,68.2
2.193,68.4
2.194,68.2
2.195,68.4
2.196,68.4
2.197,68.6
2.198,68.4
2.199,68.6
2.2,68.6
2.201,68.8
2.202,68.8
2.203,68.8
2.204,69.0
2.205,69.0
2.206,69.0
2.207,68.8
2.208,69.0
2.209,69.2
2.21,69.2
2.211,69.0
2.212,69.2
2.213,69.2
2.214,69.4
2.215,69.4
2.216,69.6
2.217,69.2
2.218,69.4
2.219,69.4
2.22,69.8
2.221,69.6
2.222,70.0
2.223,69.6
2.224,69.8
2.225,69.8
2.226,69.8
2.227,70.0
2.228,70.0
2.229,70.0
2.23,70.2
2.231,70.2
2.232,70.4
2.233,70.4
2.234,70.2
2.235,70.4
2.236,70.4
2.237,70.4
2.238,70.4
2.239,70.2
2.24,70.4
2.241,70.4
2.242,70.6
2.243,70.6
2.244,70.8
2.245,70.8
2.246,70.8
2.247,70.8
2.248,71.0
2.249,71.0
2.25,71.0
2.251,70.8
2.2520000000000002,71.0
2.253,70.8
2.254,70.8
2.255,71.4
2.2560000000000002,71.0
2.257,71.0
2.258,71.0
2.259,71.4
2.2600000000000002,71.2
2.261,71.2
2.262,71.2
2.263,71.4
2.2640000000000002,71.4
2.265,71.4
2.266,71.4
2.267,71.6
2.2680000000000002,71.6
2.269,71.4
2.27,71.6
2.271,71.6
2.2720000000000002,72.0
2.273,71.6
2.274,71.6
2.275,71.8
2.2760000000000002,71.8
2.277,71.6
2.278,71.8
2.279,72.0
2.2800000000000002,72.0
2.281,72.0
2.282,71.8
2.283,71.8
2.2840000000000003,71.8
2.285,72.2
2.286,72.0
2.287,72.2
2.2880000000000003,72.2
2.289,72.0
2.29,72.0
2.291,72.2
2.2920000000000003,72.2
2.293,72.2
2.294,72.2
2.295,72.2
2.2960000000000003,72.4
2.297,72.2
2.298,72.4
2.299,72.4
2.3000000000000003,72.4
2.301,72.6
2.302,72.4
2.303,72.8
2.3040000000000003,72.4
2.305,72.6
2.306,72.4
2.307,72.6
2.308,72.6
2.309,72.4
2.31,72.4
2.311,72.6
2.312,72.6
2.313,72.6
2.314,72.4
2.315,72.6
2.316,72.6
2.317,72.8
2.318,72.6
2.319,72.6
2.32,72.4
2.321,72.8
2.322,73.0
2.323,72.6
2.324,72.8
2.325,72.8
2.326,72.8
2.327,72.8
2.328,73.0
2.329,72.8
2.33,72.8
2.331,72.8
2.332,73.0
2.333,73.0
2.334,72.8
2.335,72.8
2.336,73.0
2.337,72.8
2.338,72.6
2.339,72.8
2.34,72.8
2.341,72.8
2.342,72.8
2.343,72.8
2.344,73.0
2.345,72.8
2.346,72.8
2.347,72.8
2.348,72.8
2.349,72.8
2.35,73.0
2.351,73.0
2.352,72.6
2.353,72.6
2.354,72.8
2.355,72.8
2.356,72.6
2.357,72.6
2.358,72.8
2.359,72.8
2.36,72.8
2.361,72.8
2.362,72.8
2.363,72.6
2.364,72.6
2.365,72.8
2.366,72.8
2.367,72.8
2.368,72.6
2.369,72.8
2.37,72.8
2.371,72.6
2.372,72.6
2.373,72.4
2.374,72.6
2.375,72.6
2.376,72.6
2.3770000000000002,72.6
2.378,72.6
2.379,72.6
2.38,72.4
2.3810000000000002,72.4
2.382,72.4
2.383,72.2
2.384,72.4
2.3850000000000002,72.4
2.386,72.4
2.387,72.4
2.388,72.2
2.3890000000000002,72.4
2.39,72.4
2.391,72.2
2.392,72.0
2.3930000000000002,72.4
2.394,72.0
2.395,72.2
2.396,72.0
2.3970000000000002,72.0
2.398,72.2
2.399,72.0
2.4,72.0
2.4010000000000002,72.2
2.402,72.0
2.403,72.0
2.404,72.0
2.4050000000000002,71.8
2.406,72.0
2.407,72.0
2.408,72.0
2.4090000000000003,71.8
2.41,71.6
2.411,71.8
2.412,71.8
2.4130000000000003,71.6
2.414,71.6
2.415,71.6
2.416,71.4
2.4170000000000003,71.6
2.418,71.6
2.419,71.4
2.42,71.4
2.4210000000000003,71.4
2.422,71.2
2.423,71.2
2.424,71.2
2.4250000000000003,71.4
2.426,71.2
2.427,71.2
2.428,71.4
2.4290000000000003,71.2
2.43,71.2
2.431,71.2
2.432,71.0
2.433,71.2
2.434,71.0
2.435,71.0
2.436,70.8
2.437,70.8
2.438,70.6
2.439,70.6
2.44,70.8
2.441,70.6
2.442,70.8
2.443,70.6
2.444,70.6
2.445,70.4
2.446,70.4
2.447,70.4
2.448,70.4
2.449,70.4
2.45,70.4
2.451,70.2
2.452,70.2
2.453,70.2
2.454,70.4
2.455,69.8
2.456,69.8
2.457,70.2
2.458,69.8
2.459,70.0
2.46,69.8
2.461,69.6
2.462,69.6
2.463,69.8
2.464,69.6
2.465,69.6
2.466,69.6
2.467,69.4
2.468,69.4
2.469,69.4
2.47,69.4
2.471,69.4
2.472,69.2
2.473,69.2
2.474,69.2
2.475,69.0
2.476,69.0
2.477,69.0
2.478,69.0
2.479,69.0
2.48,68.8
2.481,68.8
2.482,68.6
2.483,68.8
2.484,68.8
2.485,68.6
2.486,68.6
2.487,68.4
2.488,68.4
2.489,68.4
2.49,68.4
2.491,68.2
2.492,68.2
2.493,68.2
2.494,68.2
2.495,68.2
2.496,68.2
2.497,68.0
2.498,68.0
2.499,67.8
2.5,67.8
2.501,67.8
2.5020000000000002,67.8
2.503,67.8
2.504,67.6
2.505,67.6
2.5060000000000002,67.6
2.507,67.6
2.508,67.4
2.509,67.6
2.5100000000000002,67.4
2.511,67.2
2.512,67.2
2.513,67.2
2.5140000000000002,67.2
2.515,67.2
2.516,67.2
2.517,67.2
2.5180000000000002,67.0
2.519,66.8
2.52,67.0
2.521,66.8
2.5220000000000002,66.8
2.523,66.8
2.524,66.8
2.525,66.8
2.5260000000000002,66.6
2.527,66.8
2.528,66.6
2.529,66.6
2.5300000000000002,66.6
2.531,66.4
2.532,66.4
2.533,66.4
2.5340000000000003,66.4
2.535,66.4
2.536,66.2
2.537,66.4
2.5380000000000003,66.0
2.539,66.2
2.54,66.0
2.541,66.2
2.5420000000000003,66.0
2.543,65.8
2.544,65.8
2.545,66.0
2.5460000000000003,65.8
2.547,65.8
2.548,65.8
2.549,65.6
2.5500000000000003,65.6
2.551,65.6
2.552,65.8
2.553,65.8
2.5540000000000003,65.2
2.555,65.2
2.556,65.4
2.557,65.6
2.5580000000000003,65.4
2.559,65.2
2.56,65.2
2.561,65.0
2.562,65.2
2.563,65.2
2.564,65.0
2.565,65.2
2.566,65.0
2.567,65.0
2.568,65.0
2.569,65.0
2.57,64.8
2.571,64.8
2.572,65.0
2.573,64.6
2.574,64.8
2.575,64.8
2.576,64.8
2.577,64.8
2.578,64.8
2.579,64.6
2.58,64.4
2.581,64.6
2.582,64.4
2.583,64.6
2.584,64.6
2.585,64.4
2.586,64.4
2.587,64.4
2.588,64.6
2.589,64.2
2.59,64.2
2.591,64.4
2.592,64.2
2.593,64.4
2.594,64.2
2.595,64.2
2.596,64.2
2.597,64.2
2.598,64.2
2.599,64.2
2.6,64.2
2.601,64.0
2.602,64.2
2.603,64.0
2.604,64.2
2.605,64.0
2.606,64.2
2.607,64.0
2.608,64.0
2.609,64.2
2.61,64.0
2.611,64.0
2.612,64.2
2.613,63.8
2.614,64.0
2.615,64.0
2.616,64.0
2.617,63.8
2.618,64.0
2.619,64.2
2.62,63.8
2.621,64.0
2.622,63.8
2.623,64.0
2.624,64.0
2.625,63.8
2.626,64.0
2.6270000000000002,64.0
2.628,64.0
2.629,64.0
2.63,64.0
2.6310000000000002,63.8
2.632,64.0
2.633,64.0
2.634,64.0
2.6350000000000002,63.6
2.636,64.0
2.637,63.8
2.638,63.8
2.6390000000000002,64.0
2.64,64.0
2.641,63.8
2.642,63.8
2.6430000000000002,64.0
2.644,64.0
2.645,63.8
2.646,64.0
2.6470000000000002,64.0
2.648,63.8
2.649,63.4
2.65,63.6
2.6510000000000002,64.0
2.652,63.8
2.653,64.0
2.654,63.8
2.6550000000000002,63.8
2.656,63.8
2.657,63.8
2.658,63.8
2.6590000000000003,64.0
2.66,64.0
2.661,63.8
2.662,64.2
2.6630000000000003,64.2
2.664,63.8
2.665,63.8
2.666,64.0
2.6670000000000003,64.2
2.668,64.2
2.669,64.2
2.67,64.0
2.6710000000000003,64.2
2.672,64.0
2.673,64.0
2.674,64.0
2.6750000000000003,64.2
2.676,64.2
2.677,64.2
2.678,64.0
2.6790000000000003,64.0
2.68,64.0
2.681,64.2
2.682,64.2
2.6830000000000003,64.2
2.684,64.2
2.685,64.2
2.686,64.0
2.6870000000000003,64.2
2.688,64.2
2.689,64.2
2.69,64.6
2.691,64.4
2.692,64.4
2.693,64.2
2.694,64.4
2.695,64.4
2.696,64.4
2.697,64.4
2.698,64.6
2.699,64.6
2.7,64.2
2.701,64.6
2.702,64.4
2.703,64.8
2.704,64.6
2.705,64.6
2.706,64.4
2.707,64.6
2.708,64.8
2.709,64.8
2.71,64.6
2.711,64.8
2.712,64.6
2.713,64.6
2.714,64.8
2.715,64.8
2.716,65.0
2.717,65.0
2.718,65.0
2.719,64.6
2.72,64.8
2.721,65.0
2.722,65.0
2.723,65.0
2.724,65.0
2.725,65.2
2.726,65.2
2.727,65.2
2.728,65.2
2.729,65.2
2.73,65.2
2.731,65.4
2.732,65.4
2.733,65.4
2.734,65.0
2.735,65.4
2.736,65.4
2.737,65.6
2.738,65.6
2.739,65.8
2.74,65.4
2.741,65.8
2.742,65.6
2.743,65.8
2.744,65.8
2.745,65.8
2.746,66.0
2.747,65.6
2.748,66.0
2.749,65.8
2.75,66.0
2.751,66.0
2.7520000000000002,65.8
2.753,66.0
2.754,66.0
2.755,66.2
2.7560000000000002,66.2
2.757,66.0
2.758,66.2
2.759,66.2
2.7600000000000002,66.2
2.761,66.4
2.762,66.4
2.763,66.4
2.7640000000000002,66.4
2.765,66.6
2.766,66.6
2.767,66.4
2.7680000000000002,66.6
2.769,66.6
2.77,66.6
2.771,66.8
2.7720000000000002,66.8
2.773,67.0
2.774,67.0
2.775,67.0
2.7760000000000002,67.0
2.777,67.0
2.778,67.2
2.779,67.2
2.7800000000000002,67.2
2.781,67.4
2.782,67.2
2.783,67.2
2.7840000000000003,67.4
2.785,67.4
2.786,67.4
2.787,67.6
2.7880000000000003,67.4
2.789,67.4
2.79,67.4
2.791,67.6
2.7920000000000003,67.6
2.793,67.4
2.794,67.6
2.795,67.8
2.7960000000000003,68.0
2.797,68.0
2.798,67.8
2.799,68.0
2.8000000000000003,68.0
2.801,68.0
2.802,68.2
2.803,68.2
2.8040000000000003,68.2
2.805,68.2
2.806,68.4
2.807,68.4
2.8080000000000003,68.4
2.809,68.4
2.81,68.6
2.811,68.6
2.8120000000000003,68.6
2.813,68.6
2.814,68.8
2.815,68.6
2.816,68.8
2.817,68.8
2.818,68.8
2.819,68.8
2.82,69.0
2.821,69.0
2.822,69.2
2.823,69.0
2.824,69.2
2.825,69.4
2.826,69.2
2.827,69.2
2.828,69.4
2.829,69.4
2.83,69.6
2.831,69.6
2.832,69.4
2.833,69.6
2.834,69.6
2.835,69.6
2.836,70.0
2.837,69.6
2.838,69.8
2.839,70.0
2.84,70.0
2.841,70.0
2.842,70.0
2.843,70.0
2.844,70.4
2.845,70.2
2.846,70.2
2.847,70.2
2.848,70.2
2.849,70.4
2.85,70.4
2.851,70.2
2.852,70.2
2.853,70.6
2.854,70.6
2.855,70.8
2.856,70.2
2.857,70.8
2.858,70.6
2.859,70.8
2.86,71.0
2.861,71.0
2.862,71.0
2.863,70.8
2.864,71.0
2.865,71.0
2.866,71.0
2.867,71.2
2.868,71.0
2.869,71.2
2.87,71.2
2.871,71.2
2.872,71.0
2.873,71.4
2.874,71.2
2.875,71.4
2.876,71.2
2.8770000000000002,71.2
2.878,71.2
2.879,71.6
2.88,71.6
2.8810000000000002,71.6
2.882,71.4
2.883,71.4
2.884,71.4
2.8850000000000002,71.8
2.886,71.4
2.887,71.8
2.888,72.0
2.8890000000000002,71.6
2.89,71.8
2.891,71.8
2.892,72.0
2.8930000000000002,72.0
2.894,72.0
2.895,72.2
2.896,72.0
2.8970000000000002,72.0
2.898,71.8
2.899,72.0
2.9,72.0
2.9010000000000002,72.0
2.902,72.4
2.903,72.2
2.904,72.2
2.9050000000000002,72.0
2.906,72.2
2.907,72.0
2.908,72.0
2.9090000000000003,72.4
2.91,72.2
2.911,72.2
2.912,72.4
2.9130000000000003,72.6
2.914,72.4
2.915,72.4
2.916,72.6
2.9170000000000003,72.2
2.918,72.4
2.919,72.4
2.92,72.6
2.9210000000000003,72.4
2.922,72.6
2.923,72.8
2.924,72.6
2.9250000000000003,72.6
2.926,72.6
2.927,72.8
2.928,72.6
2.9290000000000003,72.6
2.93,72.8
2.931,72.8
2.932,72.4
2.9330000000000003,72.8
2.934,72.8
2.935,72.8
2.936,72.8
2.9370000000000003,72.6
2.938,72.8
2.939,73.0
2.94,72.8
2.9410000000000003,72.8
2.942,73.0
2.943,73.0
2.944,72.8
2.945,72.8
2.946,72.6
2.947,72.8
2.948,73.0
2.949,73.0
2.95,72.8
2.951,72.8
2.952,72.8
2.953,72.8
2.954,72.8
2.955,72.6
2.956,72.8
2.957,72.6
2.958,73.0
2.959,72.8
2.96,73.0
2.961,73.0
2.962,72.8
2.963,72.8
2.964,72.8
2.965,72.8
2.966,72.8
2.967,72.6
2.968,73.0
2.969,72.8
2.97,72.6
2.971,72.6
2.972,72.8
2.973,72.8
2.974,72.6
2.975,72.4
2.976,72.6
2.977,72.6
2.978,72.8
2.979,72.8
2.98,72.8
2.981,72.6
2.982,72.6
2.983,72.6
2.984,72.8
2.985,72.6
2.986,72.4
2.987,72.4
2.988,72.4
2.989,72.4
2.99,72.4
2.991,72.6
2.992,72.4
2.993,72.6
2.994,72.6
2.995,72.4
2.996,72.2
2.997,72.2
2.998,72.4
2.999,72.2
3.0,72.4
3.001,72.2
3.0020000000000002,72.4
3.003,72.2
3.004,72.0
3.005,72.2
3.0060000000000002,72.2
3.007,72.2
3.008,72.0
3.009,72.0
3.0100000000000002,72.0
3.011,72.2
3.012,72.0
3.013,72.0
3.0140000000000002,72.2
3.015,72.0
3.016,72.0
3.017,71.8
3.0180000000000002,71.8
3.019,72.0
3.02,71.8
3.021,72.0
3.0220000000000002,72.0
3.023,71.8
3.024,72.0
3.025,71.8
3.0260000000000002,71.6
3.027,71.8
3.028,71.6
3.029,71.6
3.0300000000000002,71.6
3.031,71.4
3.032,71.4
3.033,71.4
3.0340000000000003,71.4
3.035,71.4
3.036,71.4
3.037,71.4
3.0380000000000003,71.4
3.039,71.2
3.04,71.2
3.041,71.2
3.0420000000000003,71.0
3.043,71.0
3.044,71.0
3.045,71.0
3.0460000000000003,70.8
3.047,71.0
3.048,71.0
3.049,70.8
3.0500000000000003,70.8
3.051,70.8
3.052,70.8
3.053,70.8
3.0540000000000003,70.4
3.055,70.6
3.056,70.6
3.057,70.4
3.0580000000000003,70.4
3.059,70.4
3.06,70.4
3.061,70.2
3.0620000000000003,70.4
3.063,70.4
3.064,70.4
3.065,70.2
3.0660000000000003,70.2
3.067,70.2
3.068,70.2
3.069,70.0
3.0700000000000003,69.8
3.071,70.0
3.072,70.0
3.073,70.0
3.074,69.6
3.075,69.8
3.076,69.6
3.077,69.6
3.078,69.8
3.079,69.4
3.08,69.4
3.081,69.2
3.082,69.6
3.083,69.2
3.084,69.4
3.085,69.2
3.086,69.2
3.087,69.0
3.088,69.0
3.089,68.8
3.09,69.0
3.091,69.0
3.092,69.0
3.093,69.0
3.094,68.8
3.095,68.8
3.096,68.8
3.097,68.6
3.098,68.6
3.099,68.6
3.1,68.4
3.101,68.4
3.102,68.4
3.103,68.4
3.104,68.4
3.105,68.2
3.106,68.2
3.107,68.2
3.108,68.2
3.109,68.0
3.11,68.0
3.111,67.8
3.112,68.0
3.113,67.8
3.114,67.8
3.115,67.8
3.116,67.6
3.117,67.6
3.118,67.8
3.119,67.6
3.12,67.6
3.121,67.6
3.122,67.6
3.123,67.4
3.124,67.4
3.125,67.4
3.126,67.2
3.1270000000000002,67.2
3.128,67.2
3.129,67.0
3.13,67.2
3.1310000000000002,67.0
3.132,66.8
3.133,67.0
3.134,66.8
3.1350000000000002,67.0
3.136,66.8
3.137,66.8
3.138,66.8
3.1390000000000002,66.8
3.14,66.6
3.141,66.6
3.142,66.4
3.1430000000000002,66.6
3.144,66.4
3.145,66.2
3.146,66.6
3.1470000000000002,66.4
3.148,66.2
3.149,66.2
3.15,66.2
3.1510000000000002,66.4
3.152,66.2
3.153,66.0
3.154,66.0
3.1550000000000002,65.8
3.156,65.8
3.157,66.0
3.158,66.0
3.1590000000000003,65.8
3.16,65.8
3.161,65.8
3.162,65.8
3.1630000000000003,65.8
3.164,65.6
3.165,65.4
3.166,65.6
3.1670000000000003,65.4
3.168,65.4
3.169,65.4
3.17,65.4
3.1710000000000003,65.4
3.172,65.4
3.173,65.2
3.174,65.2
3.1750000000000003,65.2
3.176,65.2
3.177,65.4
3.178,65.4
3.1790000000000003,65.0
3.18,65.0
3.181,64.8
3.182,65.0
3.1830000000000003,64.8
3.184,64.8
3.185,65.0
3.186,64.8
3.1870000000000003,64.6
3.188,64.6
3.189,64.8
3.19,64.8
3.1910000000000003,64.6
3.192,64.8
3.193,64.8
3.194,64.6
3.1950000000000003,64.4
3.196,64.6
3.197,64.4
3.198,64.6
3.1990000000000003,64.8
3.2,64.4
3.201,64.4
3.202,64.2
3.203,64.4
3.204,64.2
3.205,64.2
3.206,64.2
3.207,64.2
3.208,64.2
3.209,64.2
3.21,64.4
3.211,64.2
3.212,64.4
3.213,64.4
3.214,64.0
3.215,64.0
3.216,64.0
3.217,64.2
3.218,64.0
3.219,64.2
3.22,64.2
3.221,64.0
3.222,64.0
3.223,64.2
3.224,64.0
3.225,64.2
3.226,64.0
3.227,64.0
3.228,63.8
3.229,64.0
3.23,64.0
3.231,63.8
3.232,64.2
3.233,63.8
3.234,64.0
3.235,64.2
3.236,64.2
3.237,63.8
3.238,64.0
3.239,64.0
3.24,64.0
3.241,63.8
3.242,63.8
3.243,63.6
3.244,63.6
3.245,64.0
3.246,63.8
3.247,63.6
3.248,63.8
3.249,64.0
3.25,63.8
3.251,64.0
3.2520000000000002,63.8
3.253,63.8
3.254,63.6
3.255,63.8
3.2560000000000002,64.0
3.257,63.8
3.258,63.8
3.259,63.8
3.2600000000000002,64.0
3.261,64.2
3.262,64.0
3.263,64.0
3.2640000000000002,63.8
3.265,64.0
3.266,63.8
3.267,64.0
3.2680000000000002,63.8
3.269,64.0
3.27,64.0
3.271,64.2
3.2720000000000002,63.8
3.273,64.0
3.274,64.0
3.275,64.2
3.2760000000000002,64.2
3.277,64.0
3.278,64.0
3.279,64.0
3.2800000000000002,64.0
3.281,64.0
3.282,64.0
3.283,64.0
3.2840000000000003,64.2
3.285,64.0
3.286,64.0
3.287,64.0
3.2880000000000003,64.2
3.289,64.2
3.29,64.4
3.291,64.2
3.2920000000000003,64.2
3.293,64.2
3.294,64.0
3.295,64.2
3.2960000000000003,64.0
3.297,64.2
3.298,64.4
3.299,64.4
3.3000000000000003,64.4
3.301,64.4
3.302,64.2
3.303,64.4
3.3040000000000003,64.2
3.305,64.6
3.306,64.2
3.307,64.4
3.3080000000000003,64.4
3.309,64.4
3.31,64.4
3.311,64.4
3.3120000000000003,64.8
3.313,64.4
3.314,64.4
3.315,64.4
3.3160000000000003,64.6
3.317,64.4
3.318,64.8
3.319,64.6
3.3200000000000003,64.6
3.321,64.6
3.322,64.8
3.323,64.6
3.3240000000000003,64.8
3.325,64.8
3.326,64.8
3.327,65.0
3.3280000000000003,64.6
3.329,64.8
3.33,65.0
3.331,65.0
3.332,64.8
3.333,65.0
3.334,65.0
3.335,64.8
3.336,64.8
3.337,65.0
3.338,65.2
3.339,65.2
3.34,65.2
3.341,65.2
3.342,65.2
3.343,65.2
3.344,65.4
3.345,65.4
3.346,65.4
3.347,65.4
3.348,65.4
3.349,65.4
3.35,65.4
3.351,65.4
3.352,65.6
3.353,65.6
3.354,65.4
3.355,65.4
3.356,65.8
3.357,65.8
3.358,65.6
3.359,65.8
3.36,65.8
3.361,65.8
3.362,65.8
3.363,65.8
3.364,66.0
3.365,66.0
3.366,66.0
3.367,65.8
3.368,66.2
3.369,66.2
3.37,66.2
3.371,66.0
3.372,66.0
3.373,66.4
3.374,66.4
3.375,66.4
3.376,66.2
3.3770000000000002,66.4
3.378,66.4
3.379,66.6
3.38,66.6
3.3810000000000002,66.6
3.382,66.6
3.383,66.8
3.384,66.6
3.3850000000000002,67.0
3.386,66.8
3.387,66.8
3.388,66.8
3.3890000000000002,66.8
3.39,67.0
3.391,67.0
3.392,67.0
3.3930000000000002,67.2
3.394,67.0
3.395,67.2
3.396,67.2
3.3970000000000002,67.2
3.398,67.4
3.399,67.6
3.4,67.2
3.4010000000000002,67.6
3.402,67.4
3.403,67.6
3.404,67.6
3.4050000000000002,67.6
3.406,67.6
3.407,67.6
3.408,67.6
3.4090000000000003,67.8
3.41,67.8
3.411,67.8
3.412,68.0
3.4130000000000003,68.0
3.414,68.2
3.415,68.0
3.416,68.2
3.4170000000000003,68.4
3.418,68.2
3.419,68.2
3.42,68.2
3.4210000000000003,68.2
3.422,68.2
3.423,68.4
3.424,68.6
3.4250000000000003,68.4
3.426,68.8
3.427,68.8
3.428,68.6
3.4290000000000003,68.8
3.43,68.8
3.431,69.0
3.432,68.8
3.4330000000000003,68.8
3.434,69.0
3.435,69.0
3.436,69.2
3.4370000000000003,69.0
3.438,69.2
3.439,69.2
3.44,69.2
3.4410000000000003,69.2
3.442,69.2
3.443,69.6
3.444,69.4
3.4450000000000003,69.4
3.446,69.6
3.447,69.6
3.448,69.8
3.4490000000000003,70.0
3.45,69.6
3.451,69.8
3.452,69.8
3.4530000000000003,69.8
3.454,70.2
3.455,70.0
3.456,70.0
3.457,70.0
3.458,70.4
3.459,70.4
3.46,70.0
3.461,70.4
3.462,70.2
3.463,70.4
3.464,70.4
3.465,70.4
3.466,70.4
3.467,70.6
3.468,70.6
3.469,70.6
3.47,70.6
3.471,70.6
3.472,70.6
3.473,70.8
3.474,71.0
3.475,70.8
3.476,70.8
3.477,70.8
3.478,70.8
3.479,71.0
3.48,71.2
3.481,71.0
3.482,71.0
3.483,71.0
3.484,71.0
3.485,71.0
3.486,71.0
3.487,71.2
3.488,71.6
3.489,71.4
3.49,71.4
3.491,71.4
3.492,71.4
3.493,71.4
3.494,71.4
3.495,71.6
3.496,71.6
3.497,71.8
3.498,71.6
3.499,71.6
3.5,71.8
3.501,71.6
3.5020000000000002,71.6
3.503,72.0
3.504,71.8
3.505,71.8
3.5060000000000002,72.0
3.507,72.0
3.508,71.8
3.509,72.0
3.5100000000000002,72.0
3.511,71.8
3.512,71.8
3.513,72.0
3.5140000000000002,72.4
3.515,72.0
3.516,72.0
3.517,72.2
3.5180000000000002,72.0
3.519,72.2
3.52,72.4
3.521,72.2
3.5220000000000002,72.4
3.523,72.2
3.524,72.4
3.525,72.4
3.5260000000000002,72.2
3.527,72.4
3.528,72.2
3.529,72.6
3.5300000000000002,72.4
3.531,72.4
3.532,72.4
3.533,72.8
3.5340000000000003,72.4
3.535,72.6
3.536,72.6
3.537,72.6
3.5380000000000003,72.6
3.539,72.4
3.54,72.6
3.541,72.6
3.5420000000000003,72.8
3.543,72.6
3.544,72.8
3.545,72.6
3.5460000000000003,72.8
3.547,72.8
3.548,72.6
3.549,72.6
3.5500000000000003,72.8
3.551,73.0
3.552,72.6
3.553,72.8
3.5540000000000003,72.8
3.555,72.8
3.556,72.8
3.557,73.0
3.5580000000000003,72.8
3.559,72.8
3.56,73.0
3.561,72.6
3.5620000000000003,72.8
3.563,72.8
3.564,72.6
3.565,73.0
3.5660000000000003,72.8
3.567,73.0
3.568,73.0
3.569,72.8
3.5700000000000003,72.8
3.571,73.0
3.572,72.8
3.573,72.8
3.5740000000000003,72.8
3.575,73.0
3.576,72.8
3.577,72.8
3.5780000000000003,73.0
3.579,73.0
3.58,72.8
3.581,72.8
3.5820000000000003,72.8
3.583,72.8
3.584,72.6
3.585,73.0
3.586,73.0
3.587,72.8
3.588,72.8
3.589,72.6
3.59,72.6
3.591,72.4
3.592,72.6
3.593,72.6
3.594,72.8
3.595,72.6
3.596,72.6
3.597,72.4
3.598,72.6
3.599,72.6
3.6,72.6
3.601,72.4
3.602,72.6
3.603,72.4
3.604,72.4
3.605,72.6
3.606,72.6
3.607,72.4
3.608,72.4
3.609,72.4
3.61,72.2
3.611,72.4
3.612,72.2
3.613,72.4
3.614,72.2
3.615,72.4
3.616,72.4
3.617,72.2
3.618,72.2
3.619,72.2
3.62,72.0
3.621,72.2
3.622,72.2
3.623,72.0
3.624,72.0
3.625,71.8
3.626,72.0
3.6270000000000002,72.0
3.628,72.0
3.629,72.0
3.63,72.2
3.6310000000000002,72.0
3.632,72.0
3.633,71.8
3.634,72.0
3.6350000000000002,72.0
3.636,71.8
3.637,71.8
3.638,71.4
3.6390000000000002,71.6
3.64,71.6
3.641,71.8
3.642,71.6
3.6430000000000002,71.4
3.644,71.4
3.645,71.4
3.646,71.6
3.6470000000000002,71.2
3.648,71.2
3.649,71.2
3.65,71.4
3.6510000000000002,71.4
3.652,71.4
3.653,71.0
3.654,71.2
3.6550000000000002,71.2
3.656,71.0
3.657,71.0
3.658,71.0
3.6590000000000003,71.2
3.66,70.8
3.661,71.0
3.662,70.8
3.6630000000000003,70.6
3.664,70.6
3.665,70.8
3.666,70.6
3.6670000000000003,70.8
3.668,70.6
3.669,70.6
3.67,70.4
3.6710000000000003,70.4
3.672,70.4
3.673,70.6
3.674,70.2
3.6750000000000003,70.2
3.676,70.2
3.677,70.4
3.678,70.0
3.6790000000000003,70.2
3.68,70.2
3.681,70.0
3.682,70.2
3.6830000000000003,69.8
3.684,70.0
3.685,69.8
3.686,69.8
3.6870000000000003,69.8
3.688,69.8
3.689,69.6
3.69,69.6
3.6910000000000003,69.6
3.692,69.6
3.693,69.6
3.694,69.4
3.6950000000000003,69.4
3.696,69.4
3.697,69.4
3.698,69.2
3.6990000000000003,69.2
3.7,69.2
3.701,69.0
3.702,69.0
3.7030000000000003,69.0
3.704,68.8
3.705,69.0
3.706,68.8
3.7070000000000003,68.8
3.708,68.6
3.709,68.8
3.71,68.6
3.7110000000000003,68.4
3.712,68.8
3.713,68.4
3.714,68.6
3.715,68.4
3.716,68.4
3.717,68.2
3.718,68.2
3.719,68.2
3.72,68.2
3.721,68.2
3.722,68.0
3.723,68.0
3.724,68.0
3.725,68.0
3.726,67.8
3.727,67.8
3.728,68.0
3.729,67.8
3.73,67.6
3.731,67.6
3.732,67.6
3.733,67.6
3.734,67.4
3.735,67.6
3.736,67.4
3.737,67.2
3.738,67.2
3.739,67.2
3.74,67.4
3.741,67.4
3.742,67.2
3.743,67.2
3.744,67.0
3.745,67.2
3.746,67.0
3.747,66.8
3.748,67.0
3.749,66.8
3.75,66.8
3.751,66.8
3.7520000000000002,66.6
3.753,66.8
3.754,66.6
3.755,66.6
3.7560000000000002,66.6
3.757,66.6
3.758,66.6
3.759,66.2
3.7600000000000002,66.4
3.761,66.2
3.762,66.2
3.763,66.2
3.7640000000000002,66.2
3.765,66.2
3.766,66.2
3.767,66.0
3.7680000000000002,65.8
3.769,66.0
3.77,66.0
3.771,66.0
3.7720000000000002,66.0
3.773,65.8
3.774,65.6
3.775,65.6
3.7760000000000002,65.8
3.777,65.6
3.778,65.6
3.779,65.6
3.7800000000000002,65.4
3.781,65.6
3.782,65.4
3.783,65.2
3.7840000000000003,65.4
3.785,65.4
3.786,65.2
3.787,65.4
3.7880000000000003,65.4
3.789,65.2
3.79,65.2
3.791,65.0
3.7920000000000003,65.4
3.793,65.0
3.794,65.0
3.795,65.0
3.7960000000000003,64.8
3.797,65.0
3.798,65.0
3.799,64.6
3.8000000000000003,65.0
3.801,64.8
3.802,64.8
3.803,64.8
3.8040000000000003,64.8
3.805,64.8
3.806,64.6
3.807,64.8
3.8080000000000003,64.4
3.809,64.4
3.81,64.4
3.811,64.8
3.8120000000000003,64.4
3.813,64.6
3.814,64.6
3.815,64.2
3.8160000000000003,64.4
3.817,64.4
3.818,64.4
3.819,64.4
3.8200000000000003,64.4
3.821,64.4
3.822,64.2
3.823,64.0
3.8240000000000003,64.2
3.825,64.2
3.826,64.2
3.827,64.0
3.8280000000000003,64.2
3.829,64.2
3.83,64.2
3.831,64.0
3.8320000000000003,64.2
3.833,64.2
3.834,64.2
3.835,64.2
3.8360000000000003,64.0
3.837,64.0
3.838,64.0
3.839,64.2
3.84,64.2
3.841,63.6
3.842,64.0
3.843,63.8
3.844,63.8
3.845,64.0
3.846,63.8
3.847,63.8
3.848,64.0
3.849,63.8
3.85,64.2
3.851,63.8
3.852,64.0
3.853,63.8
3.854,63.6
3.855,63.8
3.856,64.0
3.857,64.0
3.858,63.6
3.859,64.0
3.86,63.8
3.861,63.8
3.862,63.6
3.863,63.8
3.864,63.8
3.865,63.8
3.866,63.8
3.867,63.8
3.868,63.6
3.869,63.8
3.87,63.8
3.871,63.8
3.872,63.6
3.873,63.8
3.874,63.8
3.875,64.0
3.876,63.8
3.8770000000000002,63.8
3.878,64.0
3.879,63.8
3.88,63.8
3.8810000000000002,64.0
3.882,63.8
3.883,63.8
3.884,64.0
3.8850000000000002,63.8
3.886,64.2
3.887,64.0
3.888,63.8
3.8890000000000002,63.8
3.89,63.8
3.891,64.0
3.892,64.2
3.8930000000000002,64.0
3.894,64.0
3.895,63.8
3.896,64.2
3.8970000000000002,64.0
3.898,64.0
3.899,64.2
3.9,64.0
3.9010000000000002,64.0
3.902,64.2
3.903,64.2
3.904,64.0
3.9050000000000002,64.2
3.906,64.2
3.907,64.0
3.908,64.0
3.9090000000000003,64.2
3.91,64.2
3.911,64.2
3.912,64.2
3.9130000000000003,64.2
3.914,64.2
3.915,64.2
3.916,64.4
3.9170000000000003,64.2
3.918,64.4
3.919,64.4
3.92,64.4
3.9210000000000003,64.4
3.922,64.4
3.923,64.2
3.924,64.4
3.9250000000000003,64.4
3.926,64.4
3.927,64.4
3.928,64.6
3.9290000000000003,64.6
3.93,64.4
3.931,64.6
3.932,64.8
3.9330000000000003,64.6
3.934,64.6
3.935,64.6
3.936,64.6
3.9370000000000003,64.6
3.938,64.8
3.939,64.8
3.94,64.6
3.9410000000000003,64.8
3.942,64.8
3.943,64.8
3.944,64.8
3.9450000000000003,64.8
3.946,64.8
3.947,64.8
3.948,64.8
3.9490000000000003,65.0
3.95,65.0
3.951,65.0
3.952,65.0
3.9530000000000003,65.2
3.954,65.2
3.955,65.4
3.956,65.4
3.9570000000000003,65.2
3.958,65.2
3.959,65.2
3.96,65.2
3.9610000000000003,65.2
3.962,65.4
3.963,65.4
3.964,65.4
3.9650000000000003,65.4
3.966,65.4
3.967,65.4
3.968,65.6
3.969,65.6
3.97,65.8
3.971,65.6
3.972,65.6
3.973,65.8
3.974,65.8
3.975,65.8
3.976,65.6
3.977,66.0
3.978,65.8
3.979,65.8
3.98,66.0
3.981,66.2
3.982,66.2
3.983,66.2
3.984,66.2
3.985,66.2
3.986,66.2
3.987,66.0
3.988,66.4
3.989,66.2
3.99,66.4
3.991,66.4
3.992,66.4
3.993,66.4
3.994,66.4
3.995,66.4
3.996,66.8
3.997,66.6
3.998,66.6
3.999,66.6
4.0,66.8
4.001,67.0
4.002,67.0
4.003,67.0
4.0040000000000004,67.0
4.005,67.0
4.006,67.2
4.007,67.0
4.008,67.2
4.009,67.4
4.01,67.2
4.011,67.2
4.0120000000000005,67.4
4.013,67.4
4.014,67.4
4.015,67.4
4.016,67.4
4.017,67.4
4.018,67.6
4.019,67.6
4.0200000000000005,67.6
4.021,67.6
4.022,67.8
4.023,67.8
4.024,68.0
4.025,68.0
4.026,68.0
4.027,67.8
4.0280000000000005,68.0
4.029,68.2
4.03,68.2
4.031,68.2
4.032,68.4
4.033,68.4
4.034,68.2
4.035,68.4
4.0360000000000005,68.2
4.037,68.6
4.038,68.6
4.039,68.4
4.04,68.6
4.041,68.6
4.042,68.8
4.043,68.8
4.0440000000000005,68.8
4.045,69.0
4.046,68.8
4.047,68.8
4.048,69.0
4.049,69.0
4.05,69.0
4.051,69.0
4.0520000000000005,69.2
4.053,69.0
4.054,69.2
4.055,69.2
4.056,69.2
4.057,69.4
4.058,69.4
4.059,69.6
4.0600000000000005,69.6
4.061,69.8
4.062,69.8
4.063,69.8
4.064,69.6
4.065,69.6
4.066,69.8
4.067,70.0
4.0680000000000005,70.4
4.069,70.4
4.07,70.0
4.071,70.0
4.072,70.0
4.073,70.4
4.074,70.2
4.075,70.2
4.0760000000000005,70.4
4.077,70.4
4.078,70.4
4.079,70.4
4.08,70.4
4.081,70.6
4.082,70.6
4.083,70.6
4.0840000000000005,70.8
4.085,70.8
4.086,70.6
4.087,70.8
4.088,70.8
4.089,70.8
4.09,71.0
4.091,71.0
4.0920000000000005,70.6
4.093,70.8
4.094,71.2
4.095,71.0
4.096,71.0
4.097,71.2
4.098,71.0
4.099,71.2
4.1,71.0
4.101,71.4
4.102,71.2
4.103,71.4
4.104,71.6
4.105,71.2
4.106,71.4
4.107,71.4
4.108,71.6
4.109,71.4
4.11,71.6
4.111,71.6
4.112,71.6
4.113,71.8
4.114,71.8
4.115,71.6
4.116,72.0
4.117,72.0
4.118,72.0
4.119,72.0
4.12,71.8
4.121,72.0
4.122,71.8
4.123,72.0
4.124,72.0
4.125,72.0
4.126,72.2
4.127,72.0
4.128,72.0
4.1290000000000004,72.2
4.13,72.2
4.131,72.4
4.132,72.2
4.133,72.0
4.134,72.2
4.135,72.4
4.136,72.4
4.1370000000000005,72.4
4.138,72.4
4.139,72.2
4.14,72.4
4.141,72.4
4.142,72.6
4.143,72.4
4.144,72.4
4.1450000000000005,72.4
4.146,72.4
4.147,72.6
4.148,72.6
4.149,72.6
4.15,72.6
4.151,72.6
4.152,72.6
4.1530000000000005,72.8
4.154,72.6
4.155,72.6
4.156,72.6
4.157,72.6
4.158,72.6
4.159,72.6
4.16,72.8
4.1610000000000005,72.8
4.162,72.8
4.163,72.6
4.164,72.8
4.165,72.8
4.166,72.8
4.167,73.0
4.168,73.0
4.1690000000000005,72.8
4.17,72.8
4.171,72.8
4.172,72.8
4.173,72.8
4.174,72.8
4.175,73.0
4.176,72.8
4.1770000000000005,72.8
4.178,72.8
4.179,72.8
4.18,72.8
4.181,73.0
4.182,73.0
4.183,72.8
4.184,72.8
4.1850000000000005,72.8
4.186,72.8
4.187,72.8
4.188,72.8
4.189,72.8
4.19,73.0
4.191,72.4
4.192,72.8
4.1930000000000005,73.0
4.194,72.8
4.195,72.8
4.196,72.6
4.197,72.6
4.198,73.0
4.199,72.8
4.2,72.8
4.2010000000000005,72.8
4.202,72.8
4.203,72.8
4.204,72.6
4.205,72.4
4.206,72.8
4.207,72.8
4.208,72.6
4.2090000000000005,72.8
4.21,72.8
4.211,72.6
4.212,72.6
4.213,72.6
4.214,72.6
4.215,72.8
4.216,72.6
4.2170000000000005,72.6
4.218,72.4
4.219,72.4
4.22,72.4
4.221,72.4
4.222,72.6
4.223,72.2
4.224,72.4
4.225,72.4
4.226,72.4
4.227,72.4
4.228,72.4
4.229,72.2
4.23,72.4
4.231,72.2
4.232,72.0
4.233,72.0
4.234,72.0
4.235,72.0
4.236,72.2
4.237,72.0
4.238,72.0
4.239,72.0
4.24,72.2
4.241,72.0
4.242,71.8
4.243,71.8
4.244,71.8
4.245,71.8
4.246,71.8
4.247,72.0
4.248,71.6
4.249,71.8
4.25,71.6
4.251,72.0
4.252,71.8
4.253,71.8
4.2540000000000004,71.6
4.255,71.6
4.256,71.4
4.257,71.4
4.258,71.4
4.259,71.6
4.26,71.6
4.261,71.4
4.2620000000000005,71.4
4.263,71.2
4.264,71.2
4.265,71.4
4.266,71.2
4.267,71.2
4.268,71.2
4.269,71.2
4.2700000000000005,71.0
4.271,71.2
4.272,71.0
4.273,70.8
4.274,71.0
4.275,71.0
4.276,70.8
4.277,70.8
4.2780000000000005,70.8
4.279,70.8
4.28,70.8
4.281,70.8
4.282,70.8
4.283,70.6
4.284,70.6
4.285,70.4
4.2860000000000005,70.2
4.287,70.4
4.288,70.4
4.289,70.4
4.29,70.2
4.291,70.0
4.292,70.4
4.293,70.2
4.2940000000000005,70.0
4.295,70.0
4.296,70.0
4.297,70.0
4.298,70.0
4.299,70.0
4.3,69.8
4.301,69.8
4.3020000000000005,69.8
4.303,69.6
4.304,69.6
4.305,69.6
4.306,69.8
4.307,69.4
4.308,69.4
4.309,69.6
4.3100000000000005,69.2
4.311,69.2
4.312,69.4
4.313,69.2
4.314,69.4
4.315,69.0
4.316,68.8
4.317,69.0
4.3180000000000005,69.0
4.319,68.8
4.32,68.8
4.321,68.8
4.322,68.8
4.323,68.6
4.324,68.8
4.325,68.6
4.3260000000000005,68.6
4.327,68.4
4.328,68.4
4.329,68.6
4.33,68.4
4.331,68.2
4.332,68.2
4.333,68.0
4.3340000000000005,68.2
4.335,68.2
4.336,68.2
4.337,68.0
4.338,68.0
4.339,68.0
4.34,67.8
4.341,67.8
4.3420000000000005,68.0
4.343,67.8
4.344,67.6
4.345,67.8
4.346,67.6
4.347,67.4
4.348,67.4
4.349,67.4
4.3500000000000005,67.6
4.351,67.4
4.352,67.4
4.353,67.4
4.354,67.2
4.355,67.4
4.356,67.0
4.357,67.0
4.358,67.0
4.359,67.0
4.36,67.0
4.361,67.0
4.362,66.8
4.363,66.8
4.364,66.8
4.365,66.6
4.366,66.8
4.367,66.6
4.368,66.6
4.369,66.6
4.37,66.6
4.371,66.4
4.372,66.4
4.373,66.4
4.374,66.4
4.375,66.4
4.376,66.2
4.377,66.2
4.378,66.2
4.3790000000000004,66.2
4.38,66.2
4.381,66.2
4.382,66.0
4.383,66.0
4.384,66.2
4.385,65.6
4.386,65.8
4.3870000000000005,65.8
4.388,65.8
4.389,65.6
4.39,65.8
4.391,65.8
4.392,65.6
4.393,65.6
4.394,65.6
4.3950000000000005,65.6
4.396,65.4
4.397,65.6
4.398,65.4
4.399,65.2
4.4,65.4
4.401,65.4
4.402,65.0
4.4030000000000005,65.2
4.404,65.2
4.405,65.2
4.406,65.2
4.407,65.2
4.408,65.0
4.409,64.8
4.41,65.0
4.4110000000000005,65.2
4.412,65.0
4.413,65.0
4.414,65.0
4.415,64.8
4.416,64.8
4.417,64.4
4.418,64.8
4.4190000000000005,64.6
4.42,64.8
4.421,64.6
4.422,64.6
4.423,64.4
4.424,64.6
4.425,64.4
4.426,64.4
4.4270000000000005,64.4
4.428,64.6
4.429,64.4
4.43,64.2
4.431,64.2
4.432,64.0
4.433,64.2
4.434,64.4
4.4350000000000005,64.0
4.436,64.2
4.437,64.4
4.438,64.2
4.439,64.2
4.44,64.0
4.441,64.0
4.442,64.0
4.4430000000000005,64.0
4.444,64.2
4.445,64.2
4.446,64.2
4.447,64.0
4.448,64.0
4.449,64.2
4.45,64.2
4.4510000000000005,64.2
4.452,64.0
4.453,64.0
4.454,63.8
4.455,63.8
4.456,63.8
4.457,64.0
4.458,63.8
4.4590000000000005,64.2
4.46,64.0
4.461,64.0
4.462,63.8
4.463,64.2
4.464,64.0
4.465,64.0
4.466,64.0
4.4670000000000005,63.8
4.468,63.8
4.469,63.8
4.47,64.0
4.471,63.8
4.472,64.0
4.473,63.8
4.474,63.8
4.4750000000000005,63.8
4.476,64.0
4.477,64.0
4.478,64.0
4.479,63.8
4.48,64.0
4.481,63.8
4.482,63.8
4.483,64.0
4.484,63.6
4.485,64.0
4.486,64.0
4.487,64.2
4.488,63.8
4.489,64.0
4.49,64.0
4.491,63.8
4.492,64.0
4.493,64.0
4.494,63.8
4.495,63.6
4.496,64.0
4.497,64.2
4.498,64.0
4.499,64.0
4.5,64.0
4.501,64.0
4.502,64.0
4.503,64.0
4.5040000000000004,64.2
4.505,64.0
4.506,64.2
4.507,64.0
4.508,64.0
4.509,64.2
4.51,64.0
4.511,63.8
4.5120000000000005,64.2
4.513,64.0
4.514,64.2
4.515,64.2
4.516,64.0
4.517,64.4
4.518,64.0
4.519,64.2
4.5200000000000005,64.0
4.521,64.2
4.522,64.2
4.523,64.2
4.524,64.2
4.525,64.2
4.526,64.4
4.527,64.2
4.5280000000000005,64.4
4.529,64.2
4.53,64.2
4.531,64.2
4.532,64.4
4.533,64.4
4.534,64.4
4.535,64.2
4.5360000000000005,64.4
4.537,64.4
4.538,64.6
4.539,64.4
4.54,64.4
4.541,64.4
4.542,64.4
4.543,64.6
4.5440000000000005,64.6
4.545,64.6
4.546,64.6
4.547,64.6
4.548,64.6
4.549,64.8
4.55,64.8
4.551,64.6
4.5520000000000005,64.8
4.553,64.6
4.554,64.8
4.555,64.8
4.556,64.8
4.557,64.8
4.558,64.8
4.559,64.8
4.5600000000000005,64.8
4.561,65.0
4.562,65.0
4.563,65.0
4.564,65.0
4.565,65.0
4.566,65.2
4.567,65.2
4.5680000000000005,65.4
4.569,65.2
4.57,65.0
4.571,65.2
4.572,65.2
4.573,65.2
4.574,65.2
4.575,65.4
4.5760000000000005,65.2
4.577,65.4
4.578,65.4
4.579,65.6
4.58,65.8
4.581,65.4
4.582,65.6
4.583,65.6
4.5840000000000005,65.8
4.585,65.8
4.586,65.8
4.587,65.6
4.588,65.6
4.589,66.0
4.59,65.8
4.591,65.6
4.5920000000000005,66.0
4.593,65.8
4.594,66.0
4.595,66.0
4.596,66.2
4.597,66.2
4.598,66.2
4.599,66.2
4.6000000000000005,66.0
4.601,66.2
4.602,66.2
4.603,66.4
4.604,66.4
4.605,66.2
4.606,66.4
4.607,66.6
4.6080000000000005,66.4
4.609,66.8
4.61,66.6
4.611,66.8
4.612,66.8
4.613,66.8
4.614,66.8
4.615,66.6
4.616,66.8
4.617,66.8
4.618,67.0
4.619,67.2
4.62,67.2
4.621,67.2
4.622,67.2
4.623,67.2
4.624,67.4
4.625,67.4
4.626,67.4
4.627,67.4
4.628,67.2
4.6290000000000004,67.4
4.63,67.4
4.631,67.8
4.632,67.6
4.633,67.6
4.634,67.8
4.635,67.8
4.636,68.0
4.6370000000000005,68.0
4.638,67.8
4.639,67.8
4.64,67.8
4.641,67.8
4.642,68.2
4.643,68.2
4.644,68.2
4.6450000000000005,68.2
4.646,68.4
4.647,68.2
4.648,68.4
4.649,68.6
4.65,68.4
4.651,68.6
4.652,68.6
4.6530000000000005,68.4
4.654,68.6
4.655,68.8
4.656,68.8
4.657,68.8
4.658,68.8
4.659,69.0
4.66,69.0
4.6610000000000005,69.0
4.662,69.0
4.663,69.0
4.664,69.0
4.665,69.2
4.666,69.2
4.667,69.2
4.668,69.4
4.6690000000000005,69.6
4.67,69.4
4.671,69.4
4.672,69.4
4.673,69.4
4.674,69.6
4.675,69.8
4.676,69.8
4.6770000000000005,69.8
4.678,69.8
4.679,69.8
4.68,69.8
4.681,70.0
4.682,70.0
4.683,70.2
4.684,70.0
4.6850000000000005,70.0
4.686,69.8
4.687,70.4
4.688,70.4
4.689,70.2
4.69,70.4
4.691,70.4
4.692,70.4
4.6930000000000005,70.4
4.694,70.4
4.695,70.6
4.696,70.6
4.697,70.6
4.698,70.8
4.699,70.4
4.7,70.6
4.7010000000000005,71.0
4.702,70.8
4.703,70.8
4.704,71.0
4.705,71.0
4.706,70.8
4.707,71.0
4.708,71.2
4.7090000000000005,71.0
4.71,71.0
4.711,71.0
4.712,71.2
4.713,71.2
4.714,71.0
4.715,71.2
4.716,71.2
4.7170000000000005,71.4
4.718,71.4
4.719,71.4
4.72,71.6
4.721,71.8
4.722,71.4
4.723,71.6
4.724,71.6
4.7250000000000005,71.8
4.726,72.0
4.727,71.4
4.728,71.8
4.729,71.6
4.73,72.0
4.731,72.0
4.732,71.8
4.7330000000000005,71.8
4.734,72.0
4.735,72.0
4.736,72.0
4.737,71.8
4.738,71.8
4.739,71.8
4.74,72.0
4.741,72.2
4.742,72.0
4.743,72.2
4.744,72.2
4.745,72.2
4.746,72.4
4.747,72.2
4.748,72.2
4.749,72.2
4.75,72.4
4.751,72.2
4.752,72.2
4.753,72.2
4.7540000000000004,72.4
4.755,72.4
4.756,72.4
4.757,72.4
4.758,72.2
4.759,72.4
4.76,72.6
4.761,72.6
4.7620000000000005,72.6
4.763,72.6
4.764,72.6
4.765,72.6
4.766,72.6
4.767,72.4
4.768,72.6
4.769,72.8
4.7700000000000005,72.6
4.771,72.8
4.772,72.6
4.773,72.8
4.774,72.8
4.775,72.6
4.776,72.8
4.777,73.0
4.7780000000000005,72.6
4.779,72.6
4.78,72.8
4.781,72.6
4.782,73.0
4.783,73.0
4.784,72.8
4.785,72.8
4.7860000000000005,72.8
4.787,73.2
4.788,72.8
4.789,72.6
4.79,73.0
4.791,72.8
4.792,72.8
4.793,72.8
4.7940000000000005,73.0
4.795,72.8
4.796,73.0
4.797,73.0
4.798,72.6
4.799,72.8
4.8,72.8
4.801,73.0
4.8020000000000005,72.8
4.803,72.8
4.804,72.8
4.805,73.0
4.806,72.8
4.807,73.0
4.808,72.6
4.809,72.8
4.8100000000000005,72.8
4.811,73.0
4.812,73.0
4.813,72.6
4.814,72.8
4.815,72.6
4.816,72.6
4.817,72.6
4.8180000000000005,72.8
4.819,72.8
4.82,72.8
4.821,72.6
4.822,72.8
4.823,72.6
4.824,72.6
4.825,72.6
4.8260000000000005,72.4
4.827,72.4
4.828,72.4
4.829,72.6
4.83,72.6
4.831,72.4
4.832,72.6
4.833,72.4
4.8340000000000005,72.4
4.835,72.4
4.836,72.2
4.837,72.4
4.838,72.2
4.839,72.4
4.84,72.4
4.841,72.2
4.8420000000000005,72.2
4.843,72.4
4.844,72.2
4.845,72.2
4.846,72.2
4.847,72.4
4.848,72.0
4.849,72.2
4.8500000000000005,71.8
4.851,72.2
4.852,71.8
4.853,72.0
4.854,72.2
4.855,72.2
4.856,71.8
4.857,71.8
4.8580000000000005,72.0
4.859,72.0
4.86,72.0
4.861,72.0
4.862,71.8
4.863,71.8
4.864,71.6
4.865,72.0
4.866,71.6
4.867,71.6
4.868,71.6
4.869,71.6
4.87,71.6
4.871,71.4
4.872,71.4
4.873,71.4
4.874,71.6
4.875,71.4
4.876,71.2
4.877,71.4
4.878,71.2
4.8790000000000004,71.4
4.88,71.2
4.881,71.2
4.882,71.4
4.883,71.2
4.884,70.8
4.885,71.0
4.886,71.0
4.8870000000000005,71.0
4.888,70.8
4.889,71.0
4.89,70.8
4.891,70.8
4.892,70.8
4.893,70.8
4.894,70.6
4.8950000000000005,70.8
4.896,70.8
4.897,70.4
4.898,70.4
4.899,70.4
4.9,70.6
4.901,70.4
4.902,70.4
4.9030000000000005,70.4
4.904,70.2
4.905,70.4
4.906,70.4
4.907,70.2
4.908,70.2
4.909,70.0
4.91,70.0
4.9110000000000005,69.8
4.912,69.8
4.913,69.8
4.914,69.8
4.915,69.8
4.916,69.8
4.917,69.8
4.918,69.6
4.9190000000000005,69.6
4.92,69.4
4.921,69.8
4.922,69.4
4.923,69.4
4.924,69.4
4.925,69.4
4.926,69.4
4.9270000000000005,69.0
4.928,69.4
4.929,69.0
4.93,68.8
4.931,69.0
4.932,69.0
4.933,69.0
4.934,68.8
4.9350000000000005,68.8
4.936,68.8
4.937,68.8
4.938,68.6
4.939,68.6
4.94,68.6
4.941,68.4
4.942,68.4
4.9430000000000005,68.4
4.944,68.4
4.945,68.4
4.946,68.4
4.947,68.2
4.948,68.2
4.949,68.2
4.95,67.8
4.9510000000000005,68.0
4.952,68.0
4.953,68.0
4.954,67.8
4.955,67.8
4.956,67.8
4.957,67.8
4.958,67.6
4.9590000000000005,67.8
4.96,67.6
4.961,67.6
4.962,67.6
4.963,67.6
4.964,67.4
4.965,67.4
4.966,67.2
4.9670000000000005,67.2
4.968,67.2
4.969,67.2
4.97,67.2
4.971,67.2
4.972,67.0
4.973,67.0
4.974,66.8
4.9750000000000005,67.0
4.976,67.0
4.977,66.8
4.978,66.6
4.979,66.6
4.98,66.6
4.981,66.8
4.982,66.6
4.9830000000000005,66.6
4.984,66.6
4.985,66.4
4.986,66.6
4.987,66.4
4.988,66.2
4.989,66.2
4.99,66.2
4.9910000000000005,66.2
4.992,66.2
4.993,66.0
4.994,66.2
4.995,66.2
4.996,66.0
4.997,65.8
4.998,66.0
4.999,65.8
5.0,65.8
5.001,65.8
5.002,66.0
5.003,65.6
5.0040000000000004,65.8
5.005,65.8
5.006,65.4
5.007,65.8
5.008,65.6
5.009,65.4
5.01,65.6
5.011,65.2
5.0120000000000005,65.4
5.013,65.2
5.014,65.2
5.015,65.2
5.016,65.4
5.017,65.2
5.018,65.2
5.019,65.2
5.0200000000000005,64.8
5.021,65.0
5.022,65.0
5.023,65.2
5.024,64.8
5.025,65.0
5.026,64.6
5.027,65.0
5.0280000000000005,64.8
5.029,64.6
5.03,64.8
5.031,64.8
5.032,64.6
5.033,64.6
5.034,64.2
5.035,64.6
5.0360000000000005,64.4
5.037,64.6
5.038,64.6
5.039,64.4
5.04,64.4
5.041,64.2
5.042,64.4
5.043,64.4
5.0440000000000005,64.4
5.045,64.4
5.046,64.2
5.047,64.4
5.048,64.2
5.049,64.2
5.05,64.0
5.051,64.4
5.0520000000000005,64.2
5.053,64.4
5.054,64.0
5.055,64.0
5.056,64.0
5.057,64.2
5.058,64.2
5.059,64.2
5.0600000000000005,64.0
5.061,64.0
5.062,63.8
5.063,64.0
5.064,63.8
5.065,63.8
5.066,64.2
5.067,64.0
5.0680000000000005,64.0
5.069,63.8
5.07,64.2
5.071,64.0
5.072,64.0
5.073,64.0
5.074,64.0
5.075,64.0
5.0760000000000005,63.8
5.077,64.2
5.078,63.8
5.079,63.8
5.08,64.0
5.081,63.8
5.082,64.0
5.083,63.8
5.0840000000000005,63.8
5.085,63.6
5.086,63.8
5.087,63.8
5.088,63.4
5.089,63.8
5.09,64.0
5.091,63.8
5.0920000000000005,63.6
5.093,63.8
5.094,64.0
5.095,63.6
5.096,63.8
5.097,63.8
5.098,63.8
5.099,63.8
5.1000000000000005,63.8
5.101,64.0
5.102,63.8
5.103,63.8
5.104,63.8
5.105,63.8
5.106,64.0
5.107,64.0
5.1080000000000005,64.0
5.109,64.0
5.11,63.6
5.111,63.8
5.112,63.8
5.113,64.0
5.114,64.0
5.115,64.0
5.1160000000000005,64.0
5.117,64.0
5.118,63.8
5.119,64.2
5.12,64.0
5.121,64.0
5.122,64.2
5.123,64.0
5.124,64.0
5.125,64.0
5.126,64.2
5.127,64.0
5.128,63.8
5.1290000000000004,63.8
5.13,64.2
5.131,64.2
5.132,64.2
5.133,64.0
5.134,64.0
5.135,64.0
5.136,64.0
5.1370000000000005,64.2
5.138,64.2
5.139,64.2
5.14,64.0
5.141,64.2
5.142,64.4
5.143,64.4
5.144,64.2
5.1450000000000005,64.2
5.146,64.4
5.147,64.4
5.148,64.4
5.149,64.4
5.15,64.4
5.151,64.4
5.152,64.6
5.1530000000000005,64.4
5.154,64.4
5.155,64.2
5.156,64.6
5.157,64.6
5.158,64.6
5.159,64.6
5.16,64.4
5.1610000000000005,64.6
5.162,64.8
5.163,64.6
5.164,64.6
5.165,64.8
5.166,64.6
5.167,64.6
5.168,64.6
5.1690000000000005,64.8
5.17,64.8
5.171,65.0
5.172,65.0
5.173,65.2
5.174,65.2
5.175,64.8
5.176,65.0
5.1770000000000005,64.8
5.178,65.0
5.179,65.0
5.18,65.0
5.181,65.0
5.182,65.2
5.183,65.2
5.184,65.2
5.1850000000000005,65.4
5.186,65.4
5.187,65.4
5.188,65.4
5.189,65.2
5.19,65.6
5.191,65.6
5.192,65.6
5.1930000000000005,65.6
5.194,65.4
5.195,65.6
5.196,65.6
5.197,65.8
5.198,65.6
5.199,65.8
5.2,65.8
5.2010000000000005,65.8
5.202,66.0
5.203,65.8
5.204,66.0
5.205,66.0
5.206,66.0
5.207,66.0
5.208,66.0
5.2090000000000005,66.0
5.21,66.2
5.211,66.0
5.212,66.2
5.213,66.2
5.214,66.4
5.215,66.4
5.216,66.4
5.2170000000000005,66.4
5.218,66.4
5.219,66.4
5.22,66.6
5.221,66.4
5.222,66.4
5.223,66.6
5.224,66.6
5.2250000000000005,66.8
5.226,66.8
5.227,66.8
5.228,66.8
5.229,66.8
5.23,67.0
5.231,67.2
5.232,67.2
5.2330000000000005,67.2
5.234,67.0
5.235,67.0
5.236,67.4
5.237,67.0
5.238,67.2
5.239,67.2
5.24,67.4
5.2410000000000005,67.2
5.242,67.4
5.243,67.6
5.244,67.6
5.245,67.6
5.246,67.8
5.247,67.6
5.248,67.6
5.249,67.6
5.25,67.8
5.251,67.8
5.252,68.0
5.253,67.8
5.2540000000000004,68.0
5.255,68.2
5.256,68.0
5.257,68.2
5.258,68.0
5.259,68.4
5.26,68.4
5.261,68.4
5.2620000000000005,68.4
5.263,68.4
5.264,68.6
5.265,68.6
5.266,68.4
5.267,68.6
5.268,68.6
5.269,68.8
5.2700000000000005,68.8
5.271,68.8
5.272,68.8
5.273,69.0
5.274,68.8
5.275,69.0
5.276,69.2
5.277,69.2
5.2780000000000005,69.2
5.279,69.0
5.28,69.2
5.281,69.2
5.282,69.2
5.283,69.4
5.284,69.4
5.285,69.6
5.2860000000000005,69.6
5.287,69.6
5.288,69.6
5.289,69.8
5.29,69.8
5.291,69.8
5.292,69.8
5.293,69.8
5.2940000000000005,69.6
5.295,69.8
5.296,70.0
5.297,69.8
5.298,70.4
5.299,70.2
5.3,70.2
5.301,70.4
5.3020000000000005,70.4
5.303,70.4
5.304,70.4
5.305,70.4
5.306,70.6
5.307,70.6
5.308,70.4
5.309,70.6
5.3100000000000005,70.6
5.311,70.6
5.312,70.6
5.313,70.8
5.314,70.8
5.315,70.8
5.316,70.8
5.317,70.8
5.3180000000000005,71.0
5.319,71.2
5.32,71.0
5.321,71.0
5.322,70.8
5.323,70.8
5.324,71.2
5.325,71.2
5.3260000000000005,71.2
5.327,71.2
5.328,71.2
5.329,71.4
5.33,71.4
5.331,71.2
5.332,71.4
5.333,71.4
5.3340000000000005,71.4
5.335,71.6
5.336,71.4
5.337,71.8
5.338,71.6
5.339,71.6
5.34,71.8
5.341,71.8
5.3420000000000005,71.6
5.343,71.8
5.344,72.0
5.345,71.8
5.346,72.0
5.347,71.8
5.348,72.0
5.349,72.0
5.3500000000000005,72.0
5.351,71.8
5.352,71.8
5.353,72.0
5.354,72.2
5.355,72.2
5.356,72.2
5.357,72.0
5.3580000000000005,72.2
5.359,72.0
5.36,72.4
5.361,72.2
5.362,72.2
5.363,72.4
5.364,72.4
5.365,72.2
5.3660000000000005,72.2
5.367,72.4
5.368,72.4
5.369,72.4
5.37,72.4
5.371,72.4
5.372,72.4
5.373,72.4
5.3740000000000006,72.6
5.375,72.6
5.376,72.6
5.377,72.6
5.378,72.6
5.3790000000000004,72.6
5.38,72.6
5.381,72.6
5.382,72.6
5.383,72.6
5.384,72.8
5.385,72.6
5.386,72.6
5.3870000000000005,72.8
5.388,72.6
5.389,72.8
5.39,72.8
5.391,72.8
5.392,72.6
5.393,72.8
5.394,72.8
5.3950000000000005,73.0
5.396,72.8
5.397,72.8
5.398,73.0
5.399,73.0
5.4,72.8
5.401,73.2
5.402,72.8
5.4030000000000005,72.8
5.404,72.8
5.405,72.8
5.406,73.0
5.407,72.8
5.408,72.8
5.409,73.0
5.41,72.8
5.4110000000000005,72.8
5.412,72.8
5.413,73.0
5.414,72.8
5.415,72.8
5.416,72.8
5.417,73.0
5.418,73.0
5.4190000000000005,73.0
5.42,72.8
5.421,72.6
5.422,72.6
5.423,73.0
5.424,73.0
5.425,72.8
5.426,72.6
5.4270000000000005,72.8
5.428,72.8
5.429,72.8
5.43,72.4
5.431,72.6
5.432,72.8
5.433,72.6
5.434,72.6
5.4350000000000005,72.6
5.436,72.8
5.437,72.4
5.438,72.6
5.439,72.6
5.44,72.8
5.441,72.6
5.442,72.6
5.4430000000000005,72.4
5.444,72.4
5.445,72.4
5.446,72.4
5.447,72.6
5.448,72.6
5.449,72.4
5.45,72.4
5.4510000000000005,72.4
5.452,72.2
5.453,72.6
5.454,72.4
5.455,72.4
5.456,72.0
5.457,72.0
5.458,72.2
5.4590000000000005,72.2
5.46,72.0
5.461,72.2
5.462,72.2
5.463,72.2
5.464,72.0
5.465,71.8
5.466,72.0
5.4670000000000005,72.0
5.468,72.0
5.469,72.0
5.47,72.0
5.471,72.0
5.472,71.8
5.473,72.0
5.474,71.8
5.4750000000000005,72.0
5.476,72.0
5.477,72.0
5.478,71.8
5.479,71.6
5.48,71.6
5.481,71.6
5.482,71.4
5.4830000000000005,71.6
5.484,71.4
5.485,71.6
5.486,71.6
5.487,71.4
5.488,71.2
5.489,71.4
5.49,71.6
5.4910000000000005,71.0
5.492,71.2
5.493,71.2
5.494,71.2
5.495,71.0
5.496,71.2
5.497,71.0
5.498,71.0
5.4990000000000006,71.0
5.5,71.2
5.501,70.8
5.502,70.8
5.503,70.8
5.5040000000000004,71.0
5.505,70.8
5.506,70.6
5.507,70.6
5.508,70.6
5.509,70.8
5.51,70.6
5.511,70.6
5.5120000000000005,70.4
5.513,70.4
5.514,70.4
5.515,70.4
5.516,70.4
5.517,70.4
5.518,70.4
5.519,70.2
5.5200000000000005,70.0
5.521,69.8
5.522,70.4
5.523,70.2
5.524,70.0
5.525,70.0
5.526,69.8
5.527,69.8
5.5280000000000005,70.0
5.529,69.6
5.53,69.6
5.531,69.6
5.532,69.8
5.533,69.6
5.534,69.6
5.535,69.2
5.5360000000000005,69.4
5.537,69.2
5.538,69.2
5.539,69.2
5.54,69.2
5.541,69.0
5.542,69.0
5.543,69.2
5.5440000000000005,68.8
5.545,69.0
5.546,68.8
5.547,68.8
5.548,68.8
5.549,68.8
5.55,68.8
5.551,68.8
5.5520000000000005,68.6
5.553,68.6
5.554,68.4
5.555,68.6
5.556,68.4
5.557,68.4
5.558,68.2
5.559,68.2
5.5600000000000005,68.2
5.561,68.0
5.562,68.2
5.563,68.0
5.564,67.8
5.565,68.0
5.566,68.0
5.567,68.0
5.5680000000000005,67.8
5.569,67.8
5.57,68.0
5.571,67.6
5.572,67.6
5.573,67.6
5.574,67.6
5.575,67.4
5.5760000000000005,67.4
5.577,67.4
5.578,67.4
5.579,67.6
5.58,67.4
5.581,67.2
5.582,67.2
5.583,67.2
5.5840000000000005,67.2
5.585,67.2
5.586,66.8
5.587,66.8
5.588,67.0
5.589,66.8
5.59,67.0
5.591,66.8
5.5920000000000005,66.6
5.593,66.4
5.594,66.6
5.595,66.6
5.596,66.6
5.597,66.4
5.598,66.4
5.599,66.6
5.6000000000000005,66.2
5.601,66.4
5.602,66.4
5.603,66.2
5.604,66.2
5.605,66.0
5.606,66.2
5.607,66.2
5.6080000000000005,66.0
5.609,66.0
5.61,66.0
5.611,66.0
5.612,65.8
5.613,65.8
5.614,65.8
5.615,65.8
5.6160000000000005,66.0
5.617,65.8
5.618,65.6
5.619,65.4
5.62,65.4
5.621,65.8
5.622,65.6
5.623,65.2
5.6240000000000006,65.2
5.625,65.4
5.626,65.4
5.627,65.4
5.628,65.0
5.6290000000000004,65.0
5.63,65.0
5.631,65.0
5.632,65.2
5.633,65.0
5.634,65.2
5.635,64.8
5.636,65.0
5.6370000000000005,65.0
5.638,65.0
5.639,65.0
5.64,64.6
5.641,65.0
5.642,64.8
5.643,64.6
5.644,64.6
5.6450000000000005,64.8
5.646,64.8
5.647,65.0
5.648,64.6
5.649,64.6
5.65,64.4
5.651,64.6
5.652,64.6
5.6530000000000005,64.6
5.654,64.2
5.655,64.4
5.656,64.4
5.657,64.4
5.658,64.4
5.659,64.2
5.66,64.4
5.6610000000000005,64.2
5.662,64.2
5.663,64.2
5.664,64.2
5.665,64.2
5.666,64.2
5.667,64.2
5.668,64.2
5.6690000000000005,64.2
5.67,64.0
5.671,64.0
5.672,64.0
5.673,64.2
5.674,64.2
5.675,64.2
5.676,64.0
5.6770000000000005,64.0
5.678,64.2
5.679,64.2
5.68,64.0
5.681,64.0
5.682,64.0
5.683,64.0
5.684,64.2
5.6850000000000005,64.0
5.686,63.8
5.687,64.0
5.688,64.0
5.689,64.0
5.69,64.0
5.691,63.8
5.692,63.8
5.6930000000000005,63.8
5.694,64.0
5.695,64.0
5.696,63.8
5.697,63.8
5.698,64.0
5.699,63.8
5.7,63.8
5.7010000000000005,63.8
5.702,63.8
5.703,63.8
5.704,63.6
5.705,64.0
5.706,63.6
5.707,63.8
5.708,63.8
5.7090000000000005,64.0
5.71,64.0
5.711,64.0
5.712,63.8
5.713,64.2
5.714,64.0
5.715,64.2
5.716,63.8
5.7170000000000005,64.0
5.718,63.8
5.719,63.6
5.72,64.2
5.721,63.8
5.722,63.6
5.723,63.8
5.724,64.0
5.7250000000000005,64.0
5.726,64.0
5.727,63.6
5.728,64.0
5.729,63.8
5.73,64.0
5.731,64.0
5.732,64.2
5.7330000000000005,64.0
5.734,64.2
5.735,64.0
5.736,64.2
5.737,64.2
5.738,64.2
5.739,64.0
5.74,64.2
5.7410000000000005,64.0
5.742,63.8
5.743,64.0
5.744,64.2
5.745,64.2
5.746,64.2
5.747,64.0
5.748,64.0
5.7490000000000006,64.0
5.75,64.2
5.751,64.2
5.752,64.4
5.753,64.2
5.7540000000000004,64.2
5.755,64.2
5.756,64.4
5.757000000000001,64.4
5.758,64.2
5.759,64.4
5.76,64.4
5.761,64.2
5.7620000000000005,64.4
5.763,64.4
5.764,64.6
5.765,64.6
5.766,64.6
5.767,64.6
5.768,64.6
5.769,64.6
5.7700000000000005,64.8
5.771,64.6
5.772,64.6
5.773,64.6
5.774,64.8
5.775,64.8
5.776,64.6
5.777,64.8
5.7780000000000005,64.8
5.779,64.6
5.78,64.8
5.781,64.6
5.782,64.6
5.783,64.8
5.784,64.8
5.785,64.8
5.7860000000000005,65.0
5.787,65.0
5.788,64.6
5.789,65.0
5.79,64.8
5.791,65.2
5.792,65.0
5.793,65.2
5.7940000000000005,65.2
5.795,65.2
5.796,65.2
5.797,65.2
5.798,65.2
5.799,65.2
5.8,65.4
5.801,65.6
5.8020000000000005,65.4
5.803,65.2
5.804,65.4
5.805,65.4
5.806,65.4
5.807,65.4
5.808,65.4
5.809,65.6
5.8100000000000005,65.8
5.811,65.6
5.812,65.8
5.813,65.8
5.814,65.8
5.815,65.8
5.816,65.8
5.817,65.8
5.8180000000000005,65.8
5.819,66.0
5.82,66.0
5.821,66.0
5.822,66.0
5.823,66.2
5.824,66.2
5.825,66.2
5.8260000000000005,66.2
5.827,66.2
5.828,66.2
5.829,66.2
5.83,66.4
5.831,66.4
5.832,66.4
5.833,66.4
5.8340000000000005,66.4
5.835,66.4
5.836,66.6
5.837,66.8
5.838,66.6
5.839,66.6
5.84,66.8
5.841,67.0
5.8420000000000005,66.8
5.843,66.8
5.844,67.0
5.845,67.0
5.846,67.2
5.847,67.2
5.848,67.2
5.849,67.2
5.8500000000000005,67.0
5.851,67.4
5.852,67.2
5.853,67.2
5.854,67.4
5.855,67.6
5.856,67.6
5.857,67.6
5.8580000000000005,67.6
5.859,67.8
5.86,67.8
5.861,67.8
5.862,67.6
5.863,67.8
5.864,68.0
5.865,68.0
5.8660000000000005,68.0
5.867,68.0
5.868,68.0
5.869,68.0
5.87,68.2
5.871,68.2
5.872,68.2
5.873,68.2
5.8740000000000006,68.2
5.875,68.4
5.876,68.4
5.877,68.6
5.878,68.4
5.8790000000000004,68.6
5.88,68.6
5.881,68.8
5.882000000000001,68.8
5.883,68.8
5.884,68.8
5.885,68.8
5.886,69.0
5.8870000000000005,69.0
5.888,69.0
5.889,69.0
5.89,69.0
5.891,69.2
5.892,69.2
5.893,69.4
5.894,69.4
5.8950000000000005,69.2
5.896,69.4
5.897,69.4
5.898,69.6
5.899,69.4
5.9,69.8
5.901,70.0
5.902,69.6
5.9030000000000005,69.8
5.904,69.8
5.905,70.0
5.906,70.0
5.907,69.8
5.908,70.0
5.909,70.2
5.91,70.0
5.9110000000000005,70.0
5.912,70.4
5.913,70.4
5.914,70.4
5.915,70.4
5.916,70.2
5.917,70.2
5.918,70.4
5.9190000000000005,70.6
5.92,70.4
5.921,70.4
5.922,70.6
5.923,70.8
5.924,70.8
5.925,70.6
5.926,70.6
5.9270000000000005,70.6
5.928,70.6
5.929,70.8
5.93,71.0
5.931,71.0
5.932,70.8
5.933,71.0
5.934,71.2
5.9350000000000005,71.0
5.936,71.0
5.937,71.2
5.938,71.2
5.939,71.0
5.94,71.2
5.941,71.2
5.942,71.2
5.9430000000000005,71.0
5.944,71.4
5.945,71.4
5.946,71.2
5.947,71.4
5.948,71.6
5.949,71.6
5.95,71.6
5.9510000000000005,71.6
5.952,71.6
5.953,71.6
5.954,71.6
5.955,71.8
5.956,71.6
5.957,72.0
5.958,71.8
5.9590000000000005,71.8
5.96,71.8
5.961,72.0
5.962,72.0
5.963,72.0
5.964,72.2
5.965,72.0
5.966,72.0
5.9670000000000005,72.0
5.968,72.0
5.969,72.0
5.97,72.2
5.971,72.2
5.972,72.0
5.973,72.2
5.974,72.0
5.9750000000000005,72.4
5.976,72.2
5.977,72.0
5.978,72.2
5.979,72.2
5.98,72.2
5.981,72.4
5.982,72.4
5.9830000000000005,72.4
5.984,72.6
5.985,72.6
5.986,72.2
5.987,72.6
5.988,72.4
5.989,72.6
5.99,72.4
5.9910000000000005,72.6
5.992,72.6
5.993,72.6
5.994,72.6
5.995,72.8
5.996,72.6
5.997,72.6
5.998,72.6
5.9990000000000006,72.6
6.0,72.8
6.001,72.4
6.002,72.6
6.003,72.8
6.0040000000000004,72.8
6.005,72.8
6.006,73.0
6.007000000000001,73.0
6.008,72.8
6.009,72.8
6.01,72.8
6.011,73.0
6.0120000000000005,73.0
6.013,72.8
6.014,72.8
6.015000000000001,72.8
6.016,72.8
6.017,72.8
6.018,73.0
6.019,72.6
6.0200000000000005,72.8
6.021,72.8
6.022,73.0
6.023,72.8
6.024,72.8
6.025,72.8
6.026,72.6
6.027,73.0
6.0280000000000005,72.8
6.029,73.0
6.03,73.0
6.031,72.6
6.032,72.8
6.033,72.8
6.034,72.8
6.035,72.8
6.0360000000000005,72.6
6.037,72.8
6.038,72.8
6.039,72.8
6.04,72.8
6.041,72.6
6.042,72.8
6.043,72.8
6.0440000000000005,72.6
6.045,72.6
6.046,72.6
6.047,72.8
6.048,72.6
6.049,72.6
6.05,72.4
6.051,72.6
6.0520000000000005,72.6
6.053,72.4
6.054,72.6
6.055,72.4
6.056,72.4
6.057,72.6
6.058,72.4
6.059,72.4
6.0600000000000005,72.4
6.061,72.4
6.062,72.4
6.063,72.6
6.064,72.4
6.065,72.4
6.066,72.2
6.067,72.4
6.0680000000000005,72.2
6.069,72.4
6.07,72.4
6.071,72.4
6.072,72.0
6.073,72.2
6.074,72.2
6.075,72.2
6.0760000000000005,72.0
6.077,72.2
6.078,72.0
6.079,72.0
6.08,72.0
6.081,72.0
6.082,71.8
6.083,72.0
6.0840000000000005,72.2
6.085,71.8
6.086,71.8
6.087,71.8
6.088,72.0
6.089,71.8
6.09,72.0
6.091,71.8
6.0920000000000005,71.6
6.093,71.8
6.094,71.6
6.095,71.6
6.096,71.6
6.097,71.6
6.098,71.8
6.099,71.4
6.1000000000000005,71.2
6.101,71.4
6.102,71.2
6.103,71.4
6.104,71.4
6.105,71.2
6.106,71.2
6.107,71.0
6.1080000000000005,71.0
6.109,71.2
6.11,71.0
6.111,71.2
6.112,71.0
6.113,71.0
6.114,71.0
6.115,70.8
6.1160000000000005,71.0
6.117,71.0
6.118,70.8
6.119,70.8
6.12,70.8
6.121,70.8
6.122,70.8
6.123,70.4
6.1240000000000006,70.6
6.125,70.4
6.126,70.4
6.127,70.6
6.128,70.4
6.1290000000000004,70.4
6.13,70.4
6.131,70.4
6.132000000000001,70.2
6.133,70.2
6.134,70.4
6.135,70.2
6.136,70.2
6.1370000000000005,69.8
6.138,70.0
6.139,69.8
6.140000000000001,69.8
6.141,69.8
6.142,69.8
6.143,69.4
6.144,69.4
6.1450000000000005,69.4
6.146,69.6
6.147,69.6
6.148,69.4
6.149,69.4
6.15,69.4
6.151,69.4
6.152,69.2
6.1530000000000005,69.2
6.154,69.0
6.155,69.2
6.156,69.0
6.157,69.0
6.158,69.0
6.159,69.0
6.16,69.0
6.1610000000000005,68.8
6.162,68.6
6.163,68.8
6.164,69.0
6.165,68.6
6.166,68.6
6.167,68.6
6.168,68.4
6.1690000000000005,68.4
6.17,68.4
6.171,68.4
6.172,68.2
6.173,68.4
6.174,68.2
6.175,68.0
6.176,68.2
6.1770000000000005,68.0
6.178,68.0
6.179,68.0
6.18,68.0
6.181,67.8
6.182,67.6
6.183,67.6
6.184,67.6
6.1850000000000005,67.6
6.186,67.6
6.187,67.8
6.188,67.6
6.189,67.6
6.19,67.6
6.191,67.4
6.192,67.4
6.1930000000000005,67.4
6.194,67.2
6.195,67.2
6.196,67.2
6.197,67.2
6.198,67.2
6.199,67.0
6.2,66.8
6.2010000000000005,66.8
6.202,67.0
6.203,66.8
6.204,66.8
6.205,66.8
6.206,66.8
6.207,66.6
6.208,66.8
6.2090000000000005,66.6
6.21,66.8
6.211,66.6
6.212,66.4
6.213,66.2
6.214,66.4
6.215,66.4
6.216,66.4
6.2170000000000005,66.2
6.218,66.2
6.219,66.2
6.22,66.2
6.221,66.2
6.222,66.0
6.223,65.8
6.224,65.8
6.2250000000000005,65.8
6.226,66.0
6.227,65.8
6.228,65.8
6.229,65.6
6.23,65.8
6.231,65.8
6.232,65.8
6.2330000000000005,65.6
6.234,65.4
6.235,65.4
6.236,65.4
6.237,65.4
6.238,65.2
6.239,65.4
6.24,65.4
6.2410000000000005,65.2
6.242,65.2
6.243,65.0
6.244,65.0
6.245,65.2
6.246,65.2
6.247,65.2
6.248,64.8
6.2490000000000006,65.0
6.25,65.0
6.251,64.8
6.252,64.8
6.253,64.8
6.2540000000000004,64.8
6.255,64.8
6.256,64.6
6.257000000000001,64.6
6.258,64.8
6.259,64.8
6.26,64.8
6.261,64.8
6.2620000000000005,64.8
6.263,64.6
6.264,64.4
6.265000000000001,64.4
6.266,64.4
6.267,64.4
6.268,64.6
6.269,64.4
6.2700000000000005,64.2
6.271,64.4
6.272,64.4
6.273,64.4
6.274,64.2
6.275,64.4
6.276,64.2
6.277,64.2
6.2780000000000005,64.2
6.279,64.2
6.28,64.0
6.281,64.2
6.282,64.2
6.283,64.0
6.284,64.2
6.285,64.0
6.2860000000000005,64.2
6.287,64.0
6.288,64.2
6.289,64.2
6.29,64.0
6.291,64.2
6.292,64.0
6.293,64.2
6.2940000000000005,64.2
6.295,64.2
6.296,64.2
6.297,64.0
6.298,64.0
6.299,64.2
6.3,64.0
6.301,64.0
6.3020000000000005,63.8
6.303,63.8
6.304,63.8
6.305,64.0
6.306,63.8
6.307,64.0
6.308,63.8
6.309,64.0
6.3100000000000005,63.8
6.311,63.8
6.312,63.8
6.313,63.6
6.314,63.8
6.315,64.2
6.316,63.8
6.317,63.8
6.3180000000000005,63.8
6.319,63.8
6.32,64.0
6.321,63.8
6.322,63.8
6.323,63.6
6.324,63.6
6.325,64.0
6.3260000000000005,63.8
6.327,64.0
6.328,63.8
6.329,64.0
6.33,63.8
6.331,64.0
6.332,64.0
6.333,64.0
6.3340000000000005,63.8
6.335,63.8
6.336,63.6
6.337,63.8
6.338,64.0
6.339,63.8
6.34,64.0
6.341,64.0
6.3420000000000005,64.0
6.343,63.8
6.344,64.2
6.345,64.2
6.346,64.2
6.347,64.0
6.348,64.0
6.349,63.8
6.3500000000000005,64.0
6.351,64.0
6.352,64.0
6.353,64.2
6.354,64.0
6.355,63.6
6.356,64.0
6.357,64.2
6.3580000000000005,64.2
6.359,64.2
6.36,64.2
6.361,64.2
6.362,64.2
6.363,64.0
6.364,64.2
6.365,64.2
6.3660000000000005,64.4
6.367,64.2
6.368,64.4
6.369,64.2
6.37,64.4
6.371,64.4
6.372,64.4
6.373,64.2
6.3740000000000006,64.4
6.375,64.4
6.376,64.2
6.377,64.4
6.378,64.6
6.3790000000000004,64.4
6.38,64.6
6.381,64.6
6.382000000000001,64.4
6.383,64.4
6.384,64.6
6.385,64.6
6.386,64.6
6.3870000000000005,64.8
6.388,64.8
6.389,64.6
6.390000000000001,64.8
6.391,64.8
6.392,64.8
6.393,64.8
6.394,64.8
6.3950000000000005,64.8
6.396,64.8
6.397,64.6
6.398000000000001,64.8
6.399,64.8
6.4,65.0
6.401,65.0
6.402,65.0
6.4030000000000005,65.2
6.404,65.0
6.405,64.8
6.406,65.2
6.407,65.2
6.408,65.2
6.409,65.2
6.41,65.2
6.4110000000000005,65.2
6.412,65.2
6.413,65.6
6.414,65.4
6.415,65.6
6.416,65.2
6.417,65.4
6.418,65.4
6.4190000000000005,65.6
6.42,65.4
6.421,65.6
6.422,65.6
6.423,65.6
6.424,65.8
6.425,65.8
6.426,65.8
6.4270000000000005,65.6
6.428,65.8
6.429,66.0
6.43,65.8
6.431,66.0
6.432,65.8
6.433,66.0
6.434,66.0
6.4350000000000005,66.0
6.436,66.0
6.437,66.0
6.438,66.2
6.439,66.2
6.44,66.0
6.441,66.0
6.442,66.0
6.4430000000000005,66.4
6.444,66.4
6.445,66.4
6.446,66.4
6.447,66.6
6.448,66.6
6.449,66.4
6.45,66.6
6.4510000000000005,66.8
6.452,66.6
6.453,66.6
6.454,66.6
6.455,67.0
6.456,67.0
6.457,66.8
6.458,67.0
6.4590000000000005,67.0
6.46,67.0
6.461,67.4
6.462,67.0
6.463,67.2
6.464,67.2
6.465,67.4
6.466,67.4
6.4670000000000005,67.4
6.468,67.4
6.469,67.4
6.47,67.4
6.471,67.6
6.472,67.6
6.473,67.6
6.474,67.6
6.4750000000000005,67.6
6.476,67.8
6.477,68.0
6.478,67.6
6.479,68.0
6.48,68.0
6.481,68.0
6.482,68.0
6.4830000000000005,68.2
6.484,68.0
6.485,68.2
6.486,68.4
6.487,68.4
6.488,68.4
6.489,68.4
6.49,68.4
6.4910000000000005,68.4
6.492,68.6
6.493,68.6
6.494,68.6
6.495,68.6
6.496,68.8
6.497,69.0
6.498,68.8
6.4990000000000006,68.8
6.5,68.8
6.501,69.0
6.502,69.0
6.503,69.2
6.5040000000000004,69.0
6.505,69.2
6.506,69.2
6.507000000000001,69.4
6.508,69.2
6.509,69.6
6.51,69.4
6.511,69.4
6.5120000000000005,69.6
6.513,69.6
6.514,69.6
6.515000000000001,69.6
6.516,69.6
6.517,69.8
6.518,69.8
6.519,69.8
6.5200000000000005,69.8
6.521,69.8
6.522,69.8
6.523000000000001,70.0
6.524,70.2
6.525,70.2
6.526,70.0
6.527,70.4
6.5280000000000005,70.4
6.529,70.4
6.53,70.4
6.531,70.4
6.532,70.4
6.533,70.4
6.534,70.6
6.535,70.6
6.5360000000000005,70.6
6.537,70.6
6.538,70.8
6.539,70.6
6.54,70.6
6.541,70.8
6.542,71.0
6.543,70.8
6.5440000000000005,71.0
6.545,70.6
6.546,71.0
6.547,70.8
6.548,71.0
6.549,71.0
6.55,71.0
6.551,71.2
6.5520000000000005,71.2
6.553,71.2
6.554,71.0
6.555,71.4
6.556,71.2
6.557,71.4
6.558,71.4
6.559,71.6
6.5600000000000005,71.6
6.561,71.4
6.562,71.6
6.563,71.4
6.564,71.6
6.565,71.6
6.566,71.6
6.567,71.8
6.5680000000000005,71.8
6.569,72.0
6.57,71.8
6.571,71.8
6.572,71.8
6.573,71.8
6.574,71.8
6.575,72.0
6.5760000000000005,72.0
6.577,71.8
6.578,72.0
6.579,72.2
6.58,72.0
6.581,72.0
6.582,72.0
6.583,72.2
6.5840000000000005,72.0
6.585,72.2
6.586,72.4
6.587,72.2
6.588,72.2
6.589,72.4
6.59,72.2
6.591,72.4
6.5920000000000005,72.4
6.593,72.2
6.594,72.4
6.595,72.0
6.596,72.6
6.597,72.2
6.598,72.6
6.599,72.4
6.6000000000000005,72.6
6.601,72.6
6.602,72.6
6.603,72.6
6.604,72.4
6.605,72.6
6.606,73.0
6.607,72.6
6.6080000000000005,72.6
6.609,72.6
6.61,72.6
6.611,72.8
6.612,72.8
6.613,72.6
6.614,72.8
6.615,72.8
6.6160000000000005,72.8
6.617,72.8
6.618,72.6
6.619,72.8
6.62,72.8
6.621,72.6
6.622,72.8
6.623,73.0
6.6240000000000006,72.8
6.625,72.8
6.626,72.6
6.627,72.8
6.628,73.0
6.6290000000000004,73.0
6.63,72.8
6.631,72.8
6.632000000000001,72.8
6.633,72.8
6.634,72.8
6.635,73.0
6.636,72.8
6.6370000000000005,73.0
6.638,72.8
6.639,72.8
6.640000000000001,72.8
6.641,72.8
6.642,73.0
6.643,73.0
6.644,72.8
6.6450000000000005,72.8
6.646,73.0
6.647,72.8
6.648000000000001,72.6
6.649,72.6
6.65,73.0
6.651,72.8
6.652,72.8
6.6530000000000005,72.8
6.654,72.8
6.655,72.8
6.656000000000001,72.8
6.657,72.6
6.658,72.8
6.659,72.8
6.66,72.6
6.6610000000000005,72.6
6.662,72.6
6.663,72.6
6.664,72.8
6.665,72.8
6.666,72.6
6.667,72.6
6.668,72.4
6.6690000000000005,72.6
6.67,72.4
6.671,72.4
6.672,72.4
6.673,72.4
6.674,72.6
6.675,72.6
6.676,72.4
6.6770000000000005,72.4
6.678,72.4
6.679,72.4
6.68,72.2
6.681,72.4
6.682,72.4
6.683,72.2
6.684,72.4
6.6850000000000005,72.4
6.686,72.2
6.687,72.2
6.688,72.2
6.689,72.2
6.69,72.4
6.691,72.2
6.692,72.2
6.6930000000000005,72.0
6.694,71.8
6.695,72.0
6.696,71.8
6.697,72.2
6.698,72.0
6.699,72.0
6.7,72.0
6.7010000000000005,72.0
6.702,71.6
6.703,72.0
6.704,71.8
6.705,72.0
6.706,72.0
6.707,71.6
6.708,71.6
6.7090000000000005,71.6
6.71,71.6
6.711,71.6
6.712,71.4
6.713,71.4
6.714,71.6
6.715,71.4
6.716,71.4
6.7170000000000005,71.4
6.718,71.2
6.719,71.0
6.72,71.2
6.721,71.4
6.722,71.2
6.723,71.2
6.724,71.0
6.7250000000000005,71.0
6.726,71.2
6.727,71.0
6.728,71.0
6.729,70.8
6.73,71.0
6.731,70.8
6.732,70.8
6.7330000000000005,70.8
6.734,70.8
6.735,70.6
6.736,70.6
6.737,70.4
6.738,70.4
6.739,70.4
6.74,70.6
6.7410000000000005,70.4
6.742,70.4
6.743,70.2
6.744,70.4
6.745,70.2
6.746,70.4
6.747,70.2
6.748,70.2
6.7490000000000006,69.8
6.75,70.0
6.751,70.0
6.752,70.2
6.753,70.0
6.7540000000000004,69.8
6.755,69.8
6.756,69.8
6.757000000000001,69.8
6.758,69.6
6.759,69.4
6.76,69.6
6.761,69.4
6.7620000000000005,69.6
6.763,69.4
6.764,69.4
6.765000000000001,69.4
6.766,69.0
6.767,69.2
6.768,69.2
6.769,69.2
6.7700000000000005,69.2
6.771,68.8
6.772,69.0
6.773000000000001,69.0
6.774,69.0
6.775,68.8
6.776,68.8
6.777,68.8
6.7780000000000005,68.8
6.779,68.4
6.78,68.6
6.781000000000001,68.6
6.782,68.4
6.783,68.4
6.784,68.4
6.785,68.4
6.7860000000000005,68.4
6.787,68.2
6.788,68.2
6.789,68.2
6.79,68.0
6.791,67.8
6.792,68.0
6.793,67.8
6.7940000000000005,68.0
6.795,67.8
6.796,67.8
6.797,67.8
6.798,67.8
6.799,67.6
6.8,67.6
6.801,67.6
6.8020000000000005,67.6
6.803,67.6
6.804,67.6
6.805,67.2
6.806,67.2
6.807,67.4
6.808,67.2
6.809,67.2
6.8100000000000005,67.2
6.811,67.0
6.812,67.0
6.813,67.0
6.814,67.0
6.815,66.8
6.816,66.8
6.817,66.8
6.8180000000000005,66.8
6.819,66.6
6.82,66.8
6.821,66.6
6.822,66.6
6.823,66.6
6.824,66.6
6.825,66.6
6.8260000000000005,66.4
6.827,66.4
6.828,66.4
6.829,66.2
6.83,66.2
6.831,66.2
6.832,66.2
6.833,66.2
6.8340000000000005,66.2
6.835,66.0
6.836,65.8
6.837,65.8
6.838,66.0
6.839,66.0
6.84,65.8
6.841,65.8
6.8420000000000005,65.6
6.843,65.6
6.844,65.8
6.845,65.8
6.846,65.6
6.847,65.6
6.848,65.4
6.849,65.4
6.8500000000000005,65.6
6.851,65.6
6.852,65.4
6.853,65.4
6.854,65.4
6.855,65.4
6.856,65.2
6.857,65.0
6.8580000000000005,65.0
6.859,65.0
6.86,65.2
6.861,65.2
6.862,65.0
6.863,65.0
6.864,64.8
6.865,64.8
6.8660000000000005,64.8
6.867,64.8
6.868,64.6
6.869,64.8
6.87,64.6
6.871,64.6
6.872,64.8
6.873,64.8
6.8740000000000006,64.6
6.875,64.6
6.876,64.8
6.877,64.4
6.878,64.4
6.8790000000000004,64.4
6.88,64.6
6.881,64.4
6.882000000000001,64.4
6.883,64.4
6.884,64.4
6.885,64.4
6.886,64.4
6.8870000000000005,64.2
6.888,64.2
6.889,64.4
6.890000000000001,64.4
6.891,64.2
6.892,64.0
6.893,64.2
6.894,64.0
6.8950000000000005,64.2
6.896,64.0
6.897,64.2
6.898000000000001,64.2
6.899,64.2
6.9,64.0
6.901,64.2
6.902,64.2
6.9030000000000005,64.2
6.904,64.0
6.905,64.0
6.906000000000001,63.8
6.907,64.0
6.908,64.2
6.909,64.0
6.91,64.0
6.9110000000000005,63.8
6.912,64.2
6.913,64.0
6.914,63.8
6.915,63.8
6.916,64.0
6.917,63.8
6.918,63.8
6.9190000000000005,63.8
6.92,64.0
6.921,64.0
6.922,63.8
6.923,63.8
6.924,63.8
6.925,63.8
6.926,63.8
6.9270000000000005,63.8
6.928,64.0
6.929,63.8
6.93,63.6
6.931,63.8
6.932,63.8
6.933,64.0
6.934,64.0
6.9350000000000005,63.8
6.936,63.6
6.937,63.8
6.938,63.8
6.939,63.8
6.94,64.0
6.941,63.8
6.942,63.8
6.9430000000000005,63.8
6.944,63.8
6.945,63.6
6.946,63.8
6.947,63.8
6.948,63.8
6.949,64.0
6.95,64.0
6.9510000000000005,64.0
6.952,63.8
6.953,64.0
6.954,64.0
6.955,64.0
6.956,64.2
6.957,63.6
6.958,64.0
6.9590000000000005,64.0
6.96,64.0
6.961,64.2
6.962,64.0
6.963,63.8
6.964,64.0
6.965,64.2
6.966,63.8
6.9670000000000005,64.0
6.968,64.0
6.969,63.8
6.97,64.0
6.971,64.0
6.972,64.2
6.973,64.0
6.974,64.2
6.9750000000000005,64.2
6.976,64.0
6.977,64.0
6.978,64.0
6.979,64.2
6.98,64.0
6.981,64.2
6.982,64.4
6.9830000000000005,64.4
6.984,64.4
6.985,64.4
6.986,64.2
6.987,64.2
6.988,64.4
6.989,64.4
6.99,64.4
6.9910000000000005,64.4
6.992,64.6
6.993,64.4
6.994,64.4
6.995,64.4
6.996,64.4
6.997,64.6
6.998,64.6
6.9990000000000006,64.6
7.0,64.6
7.001,64.6
7.002,64.8
7.003,64.8
7.0040000000000004,64.8
7.005,64.6
7.006,64.6
7.007000000000001,64.8
7.008,64.8
7.009,64.6
7.01,64.8
7.011,64.8
7.0120000000000005,65.0
7.013,64.8
7.014,64.8
7.015000000000001,65.0
7.016,64.8
7.017,65.0
7.018,65.0
7.019,65.0
7.0200000000000005,65.0
7.021,65.2
7.022,65.2
7.023000000000001,65.2
7.024,65.4
7.025,65.4
7.026,65.0
7.027,65.4
7.0280000000000005,65.2
7.029,65.4
7.03,65.4
7.031000000000001,65.4
7.032,65.6
7.033,65.8
7.034,65.4
7.035,65.2
7.0360000000000005,65.6
7.037,65.8
7.038,65.8
7.039000000000001,65.8
7.04,65.6
7.041,65.8
7.042,65.8
7.043,65.8
7.0440000000000005,65.8
7.045,66.0
7.046,66.0
7.047,65.8
7.048,65.8
7.049,65.8
7.05,66.0
7.051,66.2
7.0520000000000005,66.2
7.053,66.4
7.054,66.4
7.055,66.4
7.056,66.2
7.057,66.4
7.058,66.4
7.059,66.4
7.0600000000000005,66.4
7.061,66.4
7.062,66.4
7.063,66.6
7.064,66.8
7.065,66.6
7.066,66.6
7.067,66.8
7.0680000000000005,66.8
7.069,66.8
7.07,66.8
7.071,67.0
7.072,67.0
7.073,67.2
7.074,67.2
7.075,67.2
7.0760000000000005,67.2
7.077,67.2
7.078,67.2
7.079,67.2
7.08,67.2
7.081,67.4
7.082,67.4
7.083,67.6
7.0840000000000005,67.6
7.085,67.4
7.086,67.6
7.087,67.8
7.088,67.6
7.089,67.8
7.09,67.6
7.091,67.8
7.0920000000000005,67.8
7.093,68.2
7.094,68.0
7.095,68.2
7.096,68.0
7.097,68.0
7.098,68.2
7.099,68.2
7.1000000000000005,68.4
7.101,68.4
7.102,68.4
7.103,68.4
7.104,68.2
7.105,68.4
7.106,68.4
7.107,68.8
7.1080000000000005,68.6
7.109,68.8
7.11,68.8
7.111,68.8
7.112,68.8
7.113,68.8
7.114,68.8
7.115,68.8
7.1160000000000005,69.0
7.117,69.0
7.118,69.0
7.119,69.4
7.12,69.2
7.121,69.4
7.122,69.4
7.123,69.6
7.1240000000000006,69.4
7.125,69.4
7.126,69.4
7.127,69.6
7.128,69.6
7.1290000000000004,69.6
7.13,69.8
7.131,70.0
7.132000000000001,69.8
7.133,69.8
7.134,69.8
7.135,70.0
7.136,70.0
7.1370000000000005,70.4
7.138,70.2
7.139,70.0
7.140000000000001,70.2
7.141,70.2
7.142,70.4
7.143,70.2
7.144,70.2
7.1450000000000005,70.4
7.146,70.4
7.147,70.4
7.148000000000001,70.6
7.149,70.4
7.15,70.6
7.151,70.6
7.152,70.8
7.1530000000000005,70.6
7.154,70.8
7.155,70.4
7.156000000000001,70.8
7.157,70.8
7.158,70.8
7.159,71.0
7.16,71.0
7.1610000000000005,71.0
7.162,71.0
7.163,71.2
7.164000000000001,71.0
7.165,71.0
7.166,71.2
7.167,71.2
7.168,71.2
7.1690000000000005,71.2
7.17,71.4
7.171,71.2
7.172,71.4
7.173,71.6
7.174,71.4
7.175,71.4
7.176,71.4
7.1770000000000005,72.0
7.178,71.6
7.179,71.6
7.18,71.6
7.181,71.8
7.182,71.6
7.183,71.6
7.184,71.6
7.1850000000000005,72.0
7.186,72.0
7.187,72.0
7.188,72.0
7.189,71.8
7.19,72.0
7.191,72.2
7.192,72.0
7.1930000000000005,72.0
7.194,72.2
7.195,72.2
7.196,72.4
7.197,72.0
7.198,72.2
7.199,72.2
7.2,72.4
7.2010000000000005,72.2
7.202,72.2
7.203,72.2
7.204,72.2
7.205,72.2
7.206,72.4
7.207,72.2
7.208,72.4
7.2090000000000005,72.4
7.21,72.4
7.211,72.6
7.212,72.2
7.213,72.4
7.214,72.2
7.215,72.4
7.216,72.6
7.2170000000000005,72.6
7.218,72.6
7.219,72.4
7.22,72.6
7.221,72.8
7.222,72.8
7.223,72.6
7.224,72.6
7.2250000000000005,72.8
7.226,72.8
7.227,72.8
7.228,72.8
7.229,72.8
7.23,72.8
7.231,72.8
7.232,72.6
7.2330000000000005,72.8
7.234,72.8
7.235,72.8
7.236,72.8
7.237,72.8
7.238,72.8
7.239,72.8
7.24,72.8
7.2410000000000005,72.8
7.242,72.8
7.243,72.8
7.244,72.8
7.245,72.8
7.246,72.8
7.247,72.8
7.248,73.0
7.2490000000000006,72.8
7.25,72.8
7.251,73.0
7.252,73.0
7.253,72.8
7.2540000000000004,72.6
7.255,72.8
7.256,72.8
7.257000000000001,72.8
7.258,72.8
7.259,73.0
7.26,72.6
7.261,72.8
7.2620000000000005,72.8
7.263,72.6
7.264,72.8
7.265000000000001,72.8
7.266,72.6
7.267,72.8
7.268,72.8
7.269,72.8
7.2700000000000005,72.6
7.271,72.8
7.272,72.6
7.273000000000001,72.6
7.274,72.6
7.275,72.6
7.276,72.8
7.277,72.6
7.2780000000000005,72.6
7.279,72.8
7.28,72.4
7.281000000000001,72.6
7.282,72.6
7.283,72.6
7.284,72.4
7.285,72.6
7.2860000000000005,72.4
7.287,72.4
7.288,72.2
7.289000000000001,72.4
7.29,72.4
7.291,72.6
7.292,72.4
7.293,72.2
7.2940000000000005,72.4
7.295,72.4
7.296,72.2
7.297,72.4
7.298,72.4
7.299,72.4
7.3,72.2
7.301,72.2
7.3020000000000005,72.2
7.303,72.0
7.304,72.2
7.305,72.2
7.306,71.8
7.307,72.0
7.308,72.2
7.309,72.2
7.3100000000000005,72.0
7.311,71.8
7.312,71.8
7.313,71.8
7.314,71.6
7.315,72.0
7.316,72.0
7.317,72.0
7.3180000000000005,71.6
7.319,71.8
7.32,71.6
7.321,71.6
7.322,71.6
7.323,71.4
7.324,71.6
7.325,71.4
7.3260000000000005,71.4
7.327,71.4
7.328,71.6
7.329,71.6
7.33,71.4
7.331,71.0
7.332,71.2
7.333,71.2
7.3340000000000005,71.2
7.335,71.2
7.336,71.2
7.337,71.0
7.338,71.0
7.339,71.0
7.34,71.0
7.341,71.0
7.3420000000000005,70.8
7.343,71.0
7.344,70.8
7.345,70.8
7.346,70.8
7.347,70.6
7.348,70.6
7.349,70.6
7.3500000000000005,70.8
7.351,70.6
7.352,70.6
7.353,70.4
7.354,70.4
7.355,70.2
7.356,70.4
7.357,70.4
7.3580000000000005,70.4
7.359,70.2
7.36,70.2
7.361,70.4
7.362,70.2
7.363,70.0
7.364,70.0
7.365,70.0
7.3660000000000005,69.8
7.367,70.0
7.368,69.8
7.369,69.8
7.37,69.6
7.371,69.6
7.372,69.4
7.373,69.4
7.3740000000000006,69.6
7.375,69.6
7.376,69.4
7.377,69.4
7.378,69.2
7.3790000000000004,69.4
7.38,69.2
7.381,69.4
7.382000000000001,69.0
7.383,69.2
7.384,69.0
7.385,69.0
7.386,69.0
7.3870000000000005,68.8
7.388,68.8
7.389,68.8
7.390000000000001,68.8
7.391,68.8
7.392,68.6
7.393,68.6
7.394,68.4
7.3950000000000005,68.4
7.396,68.4
7.397,68.4
7.398000000000001,68.4
7.399,68.4
7.4,68.4
7.401,68.2
7.402,68.2
7.4030000000000005,68.0
7.404,68.2
7.405,68.2
7.406000000000001,68.0
7.407,67.8
7.408,68.0
7.409,68.0
7.41,67.6
7.4110000000000005,67.6
7.412,67.4
7.413,67.6
7.414000000000001,67.6
7.415,67.6
7.416,67.6
7.417,67.6
7.418,67.4
7.4190000000000005,67.4
7.42,67.2
7.421,67.2
7.422000000000001,67.2
7.423,67.2
7.424,67.0
7.425,67.0
7.426,67.0
7.4270000000000005,67.0
7.428,66.8
7.429,67.0
7.43,66.6
7.431,66.8
7.432,66.8
7.433,66.8
7.434,66.6
7.4350000000000005,66.6
7.436,66.6
7.437,66.4
7.438,66.6
7.439,66.4
7.44,66.4
7.441,66.4
7.442,66.4
7.4430000000000005,66.2
7.444,66.2
7.445,65.8
7.446,66.2
7.447,66.2
7.448,66.0
7.449,66.0
7.45,66.0
7.4510000000000005,66.0
7.452,65.8
7.453,65.8
7.454,65.6
7.455,65.8
7.456,65.8
7.457,65.8
7.458,65.6
7.4590000000000005,65.6
7.46,65.6
7.461,65.6
7.462,65.6
7.463,65.4
7.464,65.6
7.465,65.2
7.466,65.4
7.4670000000000005,65.4
7.468,65.2
7.469,65.4
7.47,65.2
7.471,65.0
7.472,65.0
7.473,65.2
7.474,65.2
7.4750000000000005,65.0
7.476,65.0
7.477,65.0
7.478,64.8
7.479,65.0
7.48,64.8
7.481,64.6
7.482,64.8
7.4830000000000005,64.8
7.484,64.8
7.485,64.6
7.486,64.6
7.487,64.6
7.488,64.6
7.489,64.6
7.49,64.4
7.4910000000000005,64.6
7.492,64.6
7.493,64.4
7.494,64.4
7.495,64.4
7.496,64.6
7.497,64.4
7.498,64.4
7.4990000000000006,64.2
7.5,64.2
7.501,64.0
7.502,64.4
7.503,64.4
7.5040000000000004,64.0
7.505,64.2
7.506,64.2
7.507000000000001,64.2
7.508,64.2
7.509,64.0
7.51,64.0
7.511,64.2
7.5120000000000005,64.0
7.513,64.2
7.514,64.2
7.515000000000001,64.2
7.516,64.2
7.517,64.0
7.518,64.2
7.519,64.2
7.5200000000000005,64.0
7.521,64.0
7.522,64.0
7.523000000000001,64.0
7.524,63.8
7.525,64.0
7.526,64.0
7.527,64.0
7.5280000000000005,64.0
7.529,64.0
7.53,64.0
7.531000000000001,63.8
7.532,64.0
7.533,64.0
7.534,63.8
7.535,63.8
7.5360000000000005,64.0
7.537,63.8
7.538,63.8
7.539000000000001,63.8
7.54,63.6
7.541,64.0
7.542,63.8
7.543,63.8
7.5440000000000005,63.8
7.545,64.0
7.546,64.0
7.547000000000001,64.0
7.548,63.8
7.549,64.0
7.55,63.8
7.551,63.6
7.5520000000000005,63.8
7.553,63.8
7.554,63.8
7.555,64.0
7.556,63.8
7.557,64.0
7.558,63.8
7.559,64.2
7.5600000000000005,63.8
7.561,63.8
7.562,63.8
7.563,63.8
7.564,63.8
7.565,63.8
7.566,63.8
7.567,63.8
7.5680000000000005,64.2
7.569,64.0
7.57,64.0
7.571,63.8
7.572,64.0
7.573,64.2
7.574,64.0
7.575,64.0
7.5760000000000005,64.2
7.577,64.0
7.578,64.0
7.579,64.2
7.58,64.0
7.581,64.2
7.582,64.2
7.583,64.2
7.5840000000000005,64.0
7.585,64.0
7.586,64.2
7.587,64.0
7.588,64.4
7.589,64.2
7.59,64.4
7.591,64.2
7.5920000000000005,64.4
7.593,64.2
7.594,64.2
7.595,64.4
7.596,64.2
7.597,64.2
7.598,64.2
7.599,64.2
7.6000000000000005,64.2
7.601,64.4
7.602,64.4
7.603,64.2
7.604,64.4
7.605,64.4
7.606,64.6
7.607,64.6
7.6080000000000005,64.4
7.609,64.4
7.61,64.6
7.611,64.4
7.612,64.6
7.613,64.8
7.614,64.6
7.615,64.6
7.6160000000000005,64.8
7.617,64.8
7.618,64.8
7.619,64.6
7.62,64.6
7.621,65.0
7.622,64.8
7.623,64.6
7.6240000000000006,64.8
7.625,64.8
7.626,64.8
7.627,65.0
7.628,65.0
7.6290000000000004,65.0
7.63,65.0
7.631,65.4
7.632000000000001,65.0
7.633,65.2
7.634,65.2
7.635,65.2
7.636,65.2
7.6370000000000005,65.2
7.638,65.2
7.639,65.2
7.640000000000001,65.4
7.641,65.4
7.642,65.4
7.643,65.2
7.644,65.4
7.6450000000000005,65.6
7.646,65.4
7.647,65.8
7.648000000000001,65.6
7.649,65.8
7.65,65.6
7.651,65.8
7.652,65.4
7.6530000000000005,65.8
7.654,65.8
7.655,65.8
7.656000000000001,65.8
7.657,65.8
7.658,66.0
7.659,65.8
7.66,65.8
7.6610000000000005,66.0
7.662,66.0
7.663,66.0
7.664000000000001,66.2
7.665,66.2
7.666,66.2
7.667,66.2
7.668,66.4
7.6690000000000005,66.2
7.67,66.4
7.671,66.4
7.672000000000001,66.4
7.673,66.4
7.674,66.6
7.675,66.6
7.676,66.6
7.6770000000000005,66.4
7.678,66.6
7.679,66.6
7.68,66.6
7.681,66.8
7.682,66.8
7.683,66.8
7.684,67.0
7.6850000000000005,67.0
7.686,66.8
7.687,67.0
7.688,67.2
7.689,67.0
7.69,67.0
7.691,67.2
7.692,67.2
7.6930000000000005,67.2
7.694,67.4
7.695,67.6
7.696,67.4
7.697,67.4
7.698,67.6
7.699,67.6
7.7,67.6
7.7010000000000005,67.8
7.702,67.6
7.703,67.8
7.704,67.8
7.705,68.0
7.706,68.0
7.707,68.0
7.708,68.0
7.7090000000000005,68.0
7.71,67.8
7.711,68.2
7.712,68.2
7.713,68.4
7.714,68.2
7.715,68.2
7.716,68.2
7.7170000000000005,68.4
7.718,68.6
7.719,68.4
7.72,68.6
7.721,68.6
7.722,68.6
7.723,68.8
7.724,68.6
7.7250000000000005,68.6
7.726,68.8
7.727,68.8
7.728,69.0
7.729,69.0
7.73,69.0
7.731,69.2
7.732,69.2
7.7330000000000005,69.2
7.734,69.2
7.735,69.4
7.736,69.4
7.737,69.4
7.738,69.4
7.739,69.6
7.74,69.4
7.7410000000000005,69.6
7.742,69.6
7.743,69.8
7.744,69.8
7.745,69.8
7.746,70.0
7.747,70.0
7.748,70.0
7.7490000000000006,69.8
7.75,69.8
7.751,70.0
7.752,70.2
7.753,70.4
7.7540000000000004,70.4
7.755,70.2
7.756,70.2
7.757000000000001,70.4
7.758,70.4
7.759,70.4
7.76,70.6
7.761,70.4
7.7620000000000005,70.4
7.763,70.6
7.764,70.8
7.765000000000001,70.6
7.766,70.6
7.767,71.0
7.768,70.8
7.769,70.6
7.7700000000000005,70.8
7.771,70.8
7.772,71.0
7.773000000000001,71.0
7.774,71.0
7.775,71.0
7.776,71.0
7.777,71.2
7.7780000000000005,71.0
7.779,71.2
7.78,71.2
7.781000000000001,71.2
7.782,71.4
7.783,71.2
7.784,71.4
7.785,71.6
7.7860000000000005,71.4
7.787,71.4
7.788,71.6
7.789000000000001,71.6
7.79,71.6
7.791,71.4
7.792,71.8
7.793,71.8
7.7940000000000005,71.6
7.795,71.8
7.796,71.6
7.797000000000001,71.8
7.798,71.8
7.799,72.0
7.8,72.0
7.801,71.8
7.8020000000000005,72.0
7.803,72.0
7.804,72.2
7.805000000000001,72.0
7.806,71.8
7.807,71.8
7.808,71.8
7.809,72.0
7.8100000000000005,72.0
7.811,72.2
7.812,72.2
7.813,72.0
7.814,72.2
7.815,72.2
7.816,72.2
7.817,72.4
7.8180000000000005,72.2
7.819,72.6
7.82,72.4
7.821,72.2
7.822,72.2
7.823,72.4
7.824,72.4
7.825,72.6
7.8260000000000005,72.2
7.827,72.4
7.828,72.4
7.829,72.4
7.83,72.6
7.831,72.6
7.832,72.4
7.833,72.4
7.8340000000000005,72.6
7.835,72.6
7.836,72.6
7.837,72.4
7.838,72.6
7.839,72.6
7.84,72.6
7.841,72.6
7.8420000000000005,72.8
7.843,72.8
7.844,72.8
7.845,72.8
7.846,72.8
7.847,72.8
7.848,72.6
7.849,72.8
7.8500000000000005,72.8
7.851,72.8
7.852,73.0
7.853,72.8
7.854,72.8
7.855,72.6
7.856,73.0
7.857,72.8
7.8580000000000005,72.8
7.859,72.8
7.86,72.8
7.861,72.8
7.862,72.8
7.863,72.8
7.864,72.8
7.865,73.0
7.8660000000000005,73.0
7.867,72.6
7.868,72.8
7.869,72.8
7.87,73.0
7.871,72.8
7.872,72.8
7.873,73.0
7.8740000000000006,72.8
7.875,72.8
7.876,72.8
7.877,72.8
7.878,73.0
7.8790000000000004,72.8
7.88,72.8
7.881,73.0
7.882000000000001,72.6
7.883,72.8
7.884,72.8
7.885,72.8
7.886,72.6
7.8870000000000005,72.8
7.888,72.8
7.889,72.8
7.890000000000001,72.6
7.891,72.8
7.892,72.6
7.893,72.6
7.894,72.4
7.8950000000000005,72.6
7.896,72.4
7.897,72.4
7.898000000000001,72.4
7.899,72.6
7.9,72.4
7.901,72.4
7.902,72.6
7.9030000000000005,72.4
7.904,72.6
7.905,72.2
7.906000000000001,72.2
7.907,72.0
7.908,72.2
7.909,72.2
7.91,72.4
7.9110000000000005,72.2
7.912,72.2
7.913,72.2
7.914000000000001,72.2
7.915,72.2
7.916,72.2
7.917,71.8
7.918,72.0
7.9190000000000005,72.0
7.92,72.0
7.921,71.8
7.922000000000001,72.0
7.923,72.0
7.924,72.0
7.925,71.8
7.926,71.8
7.9270000000000005,71.8
7.928,72.0
7.929,72.0
7.930000000000001,72.0
7.931,71.8
7.932,71.6
7.933,71.8
7.934,72.0
7.9350000000000005,71.6
7.936,71.6
7.937,71.6
7.938,71.6
7.939,71.6
7.94,71.2
7.941,71.4
7.942,71.4
7.9430000000000005,71.4
7.944,71.6
7.945,71.4
7.946,71.2
7.947,71.2
7.948,71.4
7.949,71.0
7.95,71.2
7.9510000000000005,71.0
7.952,71.0
7.953,70.8
7.954,70.8
7.955,71.0
7.956,70.6
7.957,70.8
7.958,70.8
7.9590000000000005,70.6
7.96,70.8
7.961,70.8
7.962,70.8
7.963,70.6
7.964,70.4
7.965,70.4
7.966,70.4
7.9670000000000005,70.2
7.968,70.2
7.969,70.4
7.97,70.0
7.971,70.4
7.972,70.2
7.973,70.2
7.974,70.0
7.9750000000000005,70.4
7.976,70.0
7.977,70.4
7.978,70.0
7.979,70.0
7.98,70.0
7.981,69.8
7.982,69.8
7.9830000000000005,69.6
7.984,70.0
7.985,69.6
7.986,69.8
7.987,69.4
7.988,69.4
7.989,69.4
7.99,69.6
7.9910000000000005,69.2
7.992,69.2
7.993,69.2
7.994,69.2
7.995,69.0
7.996,69.0
7.997,69.2
7.998,69.0
7.9990000000000006,68.8
8.0,68.8
8.001,69.0
8.002,68.8
8.003,68.8
8.004,68.8
8.005,68.8
8.006,68.8
8.007,68.4
8.008000000000001,68.6
8.009,68.4
8.01,68.4
8.011000000000001,68.2
8.012,68.4
8.013,68.4
8.014,68.0
8.015,68.0
8.016,68.2
8.017,68.0
8.018,68.0
8.019,68.0
8.02,67.8
8.021,68.0
8.022,67.8
8.023,67.8
8.024000000000001,67.6
8.025,67.6
8.026,67.8
8.027000000000001,67.6
8.028,67.6
8.029,67.6
8.03,67.6
8.031,67.6
8.032,67.4
8.033,67.4
8.034,67.4
8.035,67.2
8.036,67.0
8.037,67.2
8.038,67.0
8.039,66.8
8.040000000000001,67.0
8.041,67.0
8.042,66.8
8.043000000000001,67.0
8.044,66.8
8.045,67.0
8.046,66.6
8.047,66.6
8.048,66.6
8.049,66.6
8.05,66.6
8.051,66.6
8.052,66.6
8.053,66.4
8.054,66.4
8.055,66.4
8.056000000000001,66.2
8.057,66.2
8.058,66.0
8.059000000000001,66.0
8.06,66.2
8.061,65.8
8.062,66.0
8.063,66.0
8.064,66.0
8.065,65.8
8.066,65.8
8.067,65.8
8.068,66.0
8.069,65.8
8.07,65.8
8.071,65.8
8.072000000000001,65.6
8.073,65.8
8.074,65.8
8.075,65.4
8.076,65.4
8.077,65.8
8.078,65.4
8.079,65.4
8.08,65.0
8.081,65.4
8.082,65.2
8.083,65.2
8.084,65.2
8.085,65.2
8.086,65.0
8.087,65.0
8.088000000000001,64.8
8.089,65.0
8.09,65.2
8.091,65.0
8.092,64.8
8.093,64.8
8.094,64.8
8.095,64.6
8.096,64.8
8.097,64.8
8.098,64.6
8.099,64.4
8.1,64.6
8.101,64.8
8.102,64.4
8.103,64.4
8.104000000000001,64.4
8.105,64.4
8.106,64.4
8.107,64.6
8.108,64.6
8.109,64.6
8.11,64.2
8.111,64.4
8.112,64.4
8.113,64.4
8.114,64.4
8.115,64.2
8.116,64.2
8.117,64.2
8.118,64.2
8.119,64.2
8.120000000000001,64.2
8.121,64.2
8.122,64.2
8.123,64.0
8.124,64.0
8.125,64.0
8.126,64.2
8.127,64.2
8.128,64.2
8.129,64.0
8.13,64.0
8.131,63.8
8.132,64.2
8.133000000000001,64.0
8.134,64.0
8.135,64.2
8.136000000000001,64.0
8.137,64.0
8.138,63.8
8.139,64.2
8.14,64.0
8.141,64.2
8.142,64.0
8.143,64.0
8.144,64.2
8.145,63.8
8.146,64.0
8.147,63.8
8.148,63.8
8.149000000000001,64.0
8.15,64.0
8.151,63.8
8.152000000000001,63.8
8.153,64.0
8.154,63.8
8.155,63.8
8.156,64.0
8.157,63.8
8.158,63.6
8.159,63.8
8.16,64.0
8.161,63.8
8.162,63.8
8.163,64.0
8.164,63.8
8.165000000000001,63.6
8.166,63.8
8.167,63.8
8.168000000000001,63.6
8.169,63.8
8.17,64.2
8.171,63.8
8.172,64.0
8.173,64.2
8.174,63.8
8.175,64.0
8.176,64.0
8.177,63.8
8.178,64.0
8.179,63.8
8.18,64.0
8.181000000000001,64.0
8.182,64.0
8.183,64.2
8.184000000000001,64.2
8.185,64.2
8.186,64.0
8.187,63.8
8.188,64.0
8.189,64.0
8.19,64.2
8.191,64.0
8.192,64.0
8.193,64.0
8.194,64.0
8.195,64.2
8.196,64.2
8.197000000000001,64.0
8.198,64.0
8.199,64.2
8.2,64.2
8.201,64.2
8.202,64.0
8.203,64.0
8.204,64.2
8.205,64.2
8.206,64.2
8.207,64.2
8.208,64.4
8.209,64.2
8.21,64.4
8.211,64.4
8.212,64.2
8.213000000000001,64.2
8.214,64.2
8.215,64.4
8.216,64.4
8.217,64.2
8.218,64.4
8.219,64.4
8.22,64.6
8.221,64.4
8.222,64.4
8.223,64.6
8.224,64.6
8.225,64.6
8.226,64.6
8.227,64.6
8.228,64.6
8.229000000000001,64.6
8.23,64.6
8.231,64.8
8.232,64.8
8.233,64.6
8.234,64.8
8.235,64.8
8.236,64.6
8.237,64.6
8.238,65.0
8.239,65.0
8.24,65.0
8.241,64.8
8.242,65.0
8.243,64.8
8.244,65.0
8.245000000000001,65.0
8.246,65.2
8.247,65.4
8.248,65.2
8.249,65.2
8.25,65.2
8.251,65.2
8.252,65.4
8.253,65.2
8.254,65.2
8.255,65.6
8.256,65.2
8.257,65.2
8.258000000000001,65.4
8.259,65.4
8.26,65.6
8.261000000000001,65.6
8.262,65.6
8.263,65.6
8.264,65.8
8.265,65.6
8.266,65.8
8.267,65.6
8.268,65.8
8.269,66.0
8.27,65.8
8.271,66.0
8.272,66.0
8.273,66.0
8.274000000000001,66.0
8.275,66.0
8.276,66.2
8.277000000000001,66.2
8.278,66.0
8.279,66.2
8.28,66.0
8.281,66.4
8.282,66.0
8.283,66.4
8.284,66.4
8.285,66.4
8.286,66.4
8.287,66.4
8.288,66.6
8.289,66.6
8.290000000000001,66.6
8.291,66.6
8.292,66.6
8.293000000000001,66.6
8.294,66.8
8.295,67.0
8.296,66.6
8.297,66.8
8.298,67.0
8.299,67.0
8.3,67.2
8.301,67.2
8.302,67.2
8.303,67.2
8.304,67.0
8.305,67.2
8.306000000000001,67.2
8.307,67.4
8.308,67.6
8.309000000000001,67.4
8.31,67.6
8.311,67.6
8.312,67.4
8.313,67.6
8.314,67.6
8.315,67.8
8.316,67.6
8.317,67.8
8.318,68.0
8.319,68.0
8.32,68.0
8.321,68.0
8.322000000000001,68.0
8.323,68.2
8.324,68.2
8.325,68.2
8.326,68.2
8.327,68.2
8.328,68.4
8.329,68.4
8.33,68.4
8.331,68.4
8.332,68.6
8.333,68.6
8.334,68.6
8.335,68.8
8.336,68.8
8.337,68.8
8.338000000000001,68.8
8.339,69.0
8.34,69.0
8.341,68.8
8.342,69.2
8.343,69.0
8.344,69.0
8.345,69.2
8.346,69.2
8.347,69.0
8.348,69.4
8.349,69.2
8.35,69.4
8.351,69.4
8.352,69.4
8.353,69.6
8.354000000000001,69.6
8.355,69.6
8.356,69.6
8.357,70.0
8.358,70.2
8.359,69.8
8.36,69.8
8.361,70.0
8.362,69.8
8.363,69.8
8.364,69.8
8.365,70.2
8.366,70.2
8.367,70.4
8.368,70.4
8.369,70.2
8.370000000000001,70.4
8.371,70.6
8.372,70.6
8.373,70.6
8.374,70.6
8.375,70.6
8.376,70.6
8.377,70.4
8.378,70.6
8.379,70.6
8.38,70.8
8.381,70.6
8.382,70.8
8.383000000000001,70.8
8.384,70.8
8.385,70.8
8.386000000000001,71.0
8.387,71.0
8.388,71.0
8.389,71.2
8.39,71.0
8.391,71.0
8.392,71.0
8.393,71.4
8.394,71.4
8.395,71.2
8.396,71.2
8.397,71.4
8.398,71.4
8.399000000000001,71.4
8.4,71.4
8.401,71.4
8.402000000000001,71.4
8.403,71.4
8.404,71.6
8.405,71.6
8.406,71.8
8.407,71.6
8.408,71.6
8.409,71.6
8.41,71.8
8.411,72.0
8.412,71.8
8.413,72.0
8.414,71.8
8.415000000000001,71.8
8.416,71.8
8.417,72.0
8.418000000000001,72.0
8.419,72.2
8.42,72.0
8.421,72.0
8.422,72.0
8.423,72.2
8.424,72.2
8.425,72.2
8.426,72.0
8.427,72.2
8.428,72.2
8.429,72.4
8.43,72.2
8.431000000000001,72.4
8.432,72.4
8.433,72.2
8.434000000000001,72.2
8.435,72.2
8.436,72.4
8.437,72.4
8.438,72.4
8.439,72.4
8.44,72.4
8.441,72.6
8.442,72.4
8.443,72.6
8.444,72.4
8.445,72.6
8.446,72.6
8.447000000000001,72.4
8.448,72.4
8.449,72.6
8.45,72.6
8.451,72.8
8.452,72.6
8.453,73.0
8.454,72.6
8.455,72.6
8.456,72.8
8.457,72.8
8.458,72.6
8.459,72.8
8.46,72.8
8.461,72.8
8.462,72.6
8.463000000000001,72.8
8.464,72.8
8.465,72.8
8.466,72.8
8.467,72.8
8.468,73.0
8.469,73.0
8.47,72.8
8.471,72.8
8.472,72.8
8.473,73.0
8.474,73.0
8.475,73.0
8.476,72.6
8.477,73.0
8.478,72.8
8.479000000000001,72.8
8.48,72.8
8.481,73.0
8.482,72.8
8.483,73.0
8.484,72.8
8.485,72.8
8.486,72.8
8.487,72.8
8.488,72.8
8.489,72.8
8.49,72.6
8.491,72.6
8.492,72.8
8.493,72.8
8.494,72.6
8.495000000000001,72.6
8.496,72.8
8.497,72.8
8.498,72.8
8.499,72.6
8.5,72.6
8.501,72.4
8.502,72.6
8.503,72.6
8.504,72.6
8.505,72.6
8.506,72.6
8.507,72.6
8.508000000000001,72.6
8.509,72.8
8.51,72.8
8.511000000000001,72.4
8.512,72.6
8.513,72.4
8.514,72.4
8.515,72.4
8.516,72.4
8.517,72.6
8.518,72.4
8.519,72.2
8.52,72.2
8.521,72.2
8.522,72.4
8.523,72.4
8.524000000000001,72.4
8.525,72.2
8.526,72.2
8.527000000000001,72.2
8.528,72.2
8.529,72.0
8.53,72.0
8.531,72.2
8.532,72.0
8.533,72.0
8.534,71.8
8.535,72.2
8.536,72.0
8.537,72.0
8.538,72.0
8.539,72.0
8.540000000000001,72.0
8.541,71.8
8.542,71.8
8.543000000000001,71.8
8.544,71.6
8.545,71.8
8.546,72.0
8.547,71.8
8.548,71.4
8.549,72.0
8.55,71.4
8.551,71.4
8.552,71.6
8.553,71.4
8.554,71.4
8.555,71.4
8.556000000000001,71.6
8.557,71.2
8.558,71.4
8.559000000000001,71.4
8.56,71.2
8.561,71.0
8.562,71.0
8.563,71.0
8.564,71.0
8.565,71.0
8.566,71.0
8.567,71.0
8.568,71.0
8.569,71.0
8.57,70.8
8.571,71.0
8.572000000000001,70.8
8.573,70.8
8.574,70.8
8.575000000000001,70.4
8.576,70.6
8.577,70.6
8.578,70.8
8.579,70.4
8.58,70.4
8.581,70.4
8.582,70.4
8.583,70.4
8.584,70.4
8.585,70.4
8.586,70.2
8.587,70.2
8.588000000000001,70.0
8.589,69.8
8.59,70.0
8.591,70.2
8.592,70.0
8.593,69.8
8.594,69.8
8.595,69.8
8.596,69.8
8.597,69.8
8.598,69.6
8.599,69.6
8.6,69.6
8.601,69.4
8.602,69.6
8.603,69.4
8.604000000000001,69.4
8.605,69.2
8.606,69.2
8.607,69.2
8.608,69.2
8.609,69.2
8.61,69.0
8.611,69.2
8.612,69.0
8.613,69.0
8.614,68.8
8.615,68.8
8.616,68.8
8.617,68.8
8.618,68.8
8.619,68.6
8.620000000000001,68.4
8.621,68.6
8.622,68.6
8.623,68.4
8.624,68.4
8.625,68.4
8.626,68.4
8.627,68.2
8.628,68.2
8.629,68.2
8.63,68.2
8.631,68.2
8.632,68.2
8.633000000000001,68.2
8.634,68.0
8.635,67.8
8.636000000000001,67.8
8.637,67.8
8.638,67.8
8.639,67.8
8.64,67.6
8.641,67.8
8.642,67.6
8.643,67.6
8.644,67.4
8.645,67.4
8.646,67.4
8.647,67.4
8.648,67.4
8.649000000000001,67.0
8.65,67.2
8.651,67.2
8.652000000000001,67.0
8.653,67.0
8.654,66.8
8.655,66.8
8.656,66.8
8.657,67.0
8.658,66.8
8.659,66.6
8.66,66.6
8.661,66.6
8.662,66.6
8.663,66.6
8.664,66.4
8.665000000000001,66.6
8.666,66.4
8.667,66.4
8.668000000000001,66.4
8.669,66.4
8.67,66.2
8.671,66.4
8.672,66.2
8.673,66.0
8.674,66.2
8.675,66.0
8.676,66.0
8.677,66.0
8.678,65.8
8.679,65.8
8.68,65.8
8.681000000000001,65.8
8.682,65.6
8.683,65.8
8.684000000000001,65.8
8.685,65.8
8.686,65.8
8.687,65.6
8.688,65.6
8.689,65.4
8.69,65.4
8.691,65.4
8.692,65.2
8.693,65.4
8.694,65.2
8.695,65.4
8.696,65.2
8.697000000000001,65.2
8.698,65.0
8.699,65.2
8.700000000000001,65.0
8.701,65.0
8.702,65.0
8.703,65.0
8.704,65.0
8.705,65.2
8.706,65.0
8.707,65.0
8.708,64.6
8.709,64.6
8.71,64.8
8.711,64.6
8.712,64.6
8.713000000000001,64.6
8.714,64.6
8.715,64.6
8.716,64.6
8.717,64.4
8.718,64.4
8.719,64.4
8.72,64.4
8.721,64.4
8.722,64.4
8.723,64.4
8.724,64.4
8.725,64.4
8.726,64.2
8.727,64.4
8.728,64.2
8.729000000000001,64.2
8.73,64.2
8.731,64.2
8.732,64.2
8.733,64.4
8.734,64.2
8.735,64.2
8.736,64.2
8.737,64.2
8.738,64.0
8.739,64.0
8.74,64.2
8.741,64.0
8.742,64.0
8.743,64.0
8.744,64.0
8.745000000000001,64.0
8.746,64.0
8.747,64.0
8.748,64.0
8.749,63.8
8.75,64.0
8.751,63.8
8.752,63.8
8.753,64.2
8.754,64.0
8.755,64.0
8.756,64.0
8.757,64.2
8.758000000000001,63.8
8.759,63.8
8.76,63.8
8.761000000000001,64.2
8.762,63.8
8.763,63.8
8.764,64.0
8.765,63.8
8.766,64.0
8.767,63.8
8.768,63.8
8.769,64.0
8.77,63.8
8.771,63.8
8.772,64.0
8.773,63.8
8.774000000000001,63.8
8.775,63.8
8.776,63.8
8.777000000000001,63.8
8.778,63.8
8.779,63.8
8.78,64.2
8.781,63.8
8.782,63.8
8.783,63.8
8.784,63.8
8.785,64.0
8.786,63.8
8.787,64.0
8.788,63.6
8.789,64.0
8.790000000000001,63.8
8.791,63.8
8.792,64.0
8.793000000000001,64.0
8.794,63.8
8.795,64.2
8.796,64.0
8.797,64.0
8.798,64.0
8.799,63.8
8.8,64.0
8.801,64.0
8.802,64.0
8.803,64.0
8.804,64.0
8.805,64.2
8.806000000000001,64.0
8.807,64.2
8.808,64.0
8.809000000000001,64.2
8.81,64.0
8.811,64.0
8.812,64.2
8.813,64.2
8.814,64.0
8.815,64.2
8.816,64.0
8.817,64.2
8.818,64.2
8.819,64.4
8.82,64.2
8.821,64.2
8.822000000000001,64.2
8.823,64.4
8.824,64.2
8.825000000000001,64.4
8.826,64.2
8.827,64.0
8.828,64.4
8.829,64.4
8.83,64.4
8.831,64.2
8.832,64.6
8.833,64.6
8.834,64.6
8.835,64.6
8.836,64.6
8.837,64.6
8.838000000000001,64.4
8.839,64.8
8.84,64.4
8.841,64.6
8.842,64.6
8.843,64.8
8.844,64.6
8.845,64.6
8.846,64.6
8.847,64.6
8.848,64.6
8.849,64.8
8.85,64.6
8.851,64.8
8.852,64.8
8.853,65.0
8.854000000000001,64.8
8.855,65.0
8.856,65.0
8.857,64.8
8.858,65.0
8.859,65.0
8.86,65.2
8.861,65.0
8.862,65.2
8.863,65.2
8.864,65.2
8.865,65.4
8.866,65.2
8.867,65.4
8.868,65.4
8.869,65.4
8.870000000000001,65.4
8.871,65.6
8.872,65.4
8.873,65.2
8.874,65.4
8.875,65.8
8.876,65.4
8.877,65.6
8.878,65.8
8.879,65.8
8.88,65.6
8.881,65.8
8.882,65.8
8.883000000000001,66.0
8.884,65.8
8.885,66.0
8.886000000000001,65.8
8.887,65.8
8.888,66.2
8.889,66.2
8.89,66.0
8.891,66.2
8.892,66.2
8.893,66.2
8.894,66.2
8.895,66.2
8.896,66.4
8.897,66.2
8.898,66.4
8.899000000000001,66.4
8.9,66.6
8.901,66.4
8.902000000000001,66.6
8.903,66.6
8.904,66.6
8.905,66.6
8.906,66.6
8.907,66.6
8.908,66.8
8.909,67.0
8.91,66.8
8.911,67.0
8.912,66.8
8.913,67.0
8.914,67.2
8.915000000000001,67.0
8.916,67.2
8.917,67.2
8.918000000000001,67.2
8.919,67.2
8.92,67.4
8.921,67.4
8.922,67.4
8.923,67.6
8.924,67.4
8.925,67.6
8.926,67.6
8.927,67.6
8.928,67.8
8.929,67.8
8.93,67.8
8.931000000000001,68.0
8.932,68.0
8.933,68.0
8.934000000000001,68.0
8.935,68.0
8.936,68.2
8.937,67.8
8.938,68.2
8.939,68.2
8.94,68.2
8.941,68.4
8.942,68.4
8.943,68.4
8.944,68.4
8.945,68.4
8.946,68.4
8.947000000000001,68.8
8.948,68.6
8.949,68.8
8.950000000000001,68.6
8.951,68.8
8.952,68.8
8.953,68.8
8.954,69.0
8.955,69.2
8.956,69.0
8.957,69.0
8.958,69.0
8.959,69.2
8.96,69.2
8.961,69.4
8.962,69.2
8.963000000000001,69.2
8.964,69.4
8.965,69.6
8.966,69.6
8.967,69.6
8.968,69.6
8.969,69.8
8.97,69.6
8.971,69.6
8.972,69.8
8.973,69.8
8.974,70.0
8.975,69.8
8.976,70.0
8.977,70.2
8.978,70.2
8.979000000000001,70.0
8.98,70.0
8.981,70.4
8.982,70.4
8.983,70.4
8.984,70.2
8.985,70.2
8.986,70.2
8.987,70.4
8.988,70.4
8.989,70.4
8.99,70.4
8.991,70.8
8.992,70.8
8.993,70.8
8.994,70.6
8.995000000000001,70.8
8.996,70.6
8.997,70.8
8.998,71.0
8.999,71.0
9.0,71.0
9.001,71.0
9.002,71.0
9.003,71.0
9.004,71.2
9.005,71.2
9.006,71.0
9.007,71.2
9.008000000000001,71.2
9.009,71.4
9.01,71.2
9.011000000000001,71.4
9.012,71.2
9.013,71.6
9.014,71.4
9.015,71.4
9.016,71.4
9.017,71.6
9.018,71.6
9.019,71.8
9.02,71.6
9.021,71.4
9.022,71.8
9.023,71.6
9.024000000000001,71.8
9.025,71.8
9.026,72.0
9.027000000000001,71.8
9.028,71.8
9.029,71.8
9.03,72.0
9.031,72.0
9.032,72.2
9.033,72.0
9.034,72.2
9.035,72.2
9.036,72.0
9.037,72.2
9.038,72.2
9.039,72.4
9.040000000000001,72.2
9.041,72.4
9.042,72.0
9.043000000000001,72.2
9.044,72.4
9.045,72.2
9.046,72.2
9.047,72.4
9.048,72.2
9.049,72.6
9.05,72.4
9.051,72.4
9.052,72.4
9.053,72.4
9.054,72.6
9.055,72.2
9.056000000000001,72.4
9.057,72.4
9.058,72.6
9.059000000000001,72.6
9.06,72.6
9.061,72.8
9.062,72.6
9.063,72.6
9.064,72.6
9.065,72.8
9.066,72.6
9.067,72.6
9.068,72.8
9.069,72.6
9.07,72.6
9.071,73.0
9.072000000000001,72.8
9.073,72.8
9.074,72.8
9.075000000000001,72.8
9.076,73.0
9.077,72.8
9.078,72.8
9.079,73.0
9.08,72.8
9.081,72.8
9.082,72.8
9.083,72.8
9.084,72.8
9.085,72.8
9.086,73.0
9.087,73.0
9.088000000000001,72.6
9.089,72.6
9.09,72.8
9.091,72.8
9.092,72.6
9.093,72.6
9.094,72.8
9.095,72.8
9.096,72.6
9.097,72.8
9.098,73.0
9.099,73.0
9.1,72.8
9.101,72.8
9.102,72.8
9.103,72.8
9.104000000000001,72.6
9.105,72.6
9.106,72.8
9.107,72.6
9.108,72.6
9.109,72.8
9.11,72.8
9.111,72.6
9.112,73.0
9.113,72.4
9.114,72.6
9.115,72.4
9.116,72.8
9.117,72.6
9.118,72.8
9.119,72.6
9.120000000000001,72.6
9.121,72.6
9.122,72.6
9.123,72.4
9.124,72.4
9.125,72.6
9.126,72.4
9.127,72.4
9.128,72.4
9.129,72.6
9.13,72.4
9.131,72.4
9.132,72.4
9.133000000000001,72.4
9.134,72.4
9.135,72.2
9.136000000000001,72.4
9.137,72.2
9.138,72.4
9.139,72.4
9.14,72.4
9.141,72.0
9.142,72.2
9.143,72.2
9.144,72.0
9.145,72.0
9.146,72.2
9.147,71.8
9.148,72.0
9.149000000000001,72.0
9.15,72.2
9.151,71.8
9.152000000000001,72.0
9.153,72.0
9.154,71.8
9.155,71.8
9.156,71.8
9.157,72.0
9.158,71.8
9.159,71.6
9.16,71.8
9.161,71.6
9.162,71.8
9.163,71.8
9.164,71.4
9.165000000000001,71.6
9.166,71.8
9.167,71.6
9.168000000000001,71.4
9.169,71.4
9.17,71.4
9.171,71.2
9.172,71.4
9.173,71.0
9.174,71.2
9.175,71.2
9.176,71.2
9.177,71.0
9.178,71.0
9.179,71.2
9.18,71.0
9.181000000000001,71.0
9.182,70.8
9.183,70.8
9.184000000000001,70.6
9.185,71.0
9.186,70.8
9.187,70.6
9.188,70.6
9.189,70.8
9.19,70.8
9.191,70.6
9.192,70.4
9.193,70.4
9.194,70.4
9.195,70.4
9.196,70.4
9.197000000000001,70.4
9.198,70.4
9.199,70.2
9.200000000000001,70.4
9.201,70.4
9.202,70.4
9.203,70.0
9.204,70.0
9.205,70.0
9.206,69.8
9.207,69.8
9.208,69.6
9.209,69.8
9.21,69.8
9.211,69.8
9.212,69.4
9.213000000000001,69.4
9.214,69.4
9.215,69.6
9.216000000000001,69.6
9.217,69.6
9.218,69.4
9.219,69.2
9.22,69.2
9.221,69.0
9.222,69.0
9.223,69.0
9.224,69.0
9.225,69.0
9.226,69.0
9.227,69.0
9.228,69.0
9.229000000000001,68.6
9.23,68.8
9.231,68.8
9.232,68.6
9.233,68.8
9.234,68.6
9.235,68.8
9.236,68.4
9.237,68.4
9.238,68.2
9.239,68.4
9.24,68.2
9.241,68.2
9.242,68.2
9.243,68.2
9.244,68.0
9.245000000000001,68.0
9.246,67.8
9.247,68.0
9.248,68.0
9.249,67.8
9.25,67.6
9.251,67.8
9.252,67.6
9.253,67.6
9.254,67.6
9.255,67.6
9.256,67.6
9.257,67.4
9.258000000000001,67.4
9.259,67.6
9.26,67.4
9.261000000000001,67.2
9.262,67.2
9.263,67.2
9.264,67.2
9.265,67.0
9.266,67.0
9.267,67.0
9.268,66.8
9.269,66.8
9.27,66.8
9.271,66.8
9.272,66.6
9.273,66.8
9.274000000000001,66.8
9.275,66.6
9.276,66.6
9.277000000000001,66.4
9.278,66.6
9.279,66.4
9.28,66.4
9.281,66.4
9.282,66.2
9.283,66.2
9.284,66.4
9.285,66.4
9.286,66.0
9.287,66.0
9.288,66.2
9.289,66.2
9.290000000000001,66.0
9.291,65.8
9.292,65.8
9.293000000000001,65.8
9.294,65.8
9.295,65.8
9.296,65.8
9.297,65.8
9.298,65.6
9.299,65.8
9.3,65.6
9.301,65.8
9.302,65.4
9.303,65.6
9.304,65.6
9.305,65.2
9.306000000000001,65.4
9.307,65.2
9.308,65.2
9.309000000000001,65.4
9.31,65.2
9.311,64.8
9.312,65.0
9.313,65.0
9.314,65.0
9.315,65.2
9.316,65.2
9.317,65.0
9.318,64.6
9.319,64.8
9.32,65.0
9.321,64.8
9.322000000000001,64.6
9.323,64.8
9.324,64.8
9.325000000000001,64.6
9.326,64.4
9.327,64.6
9.328,64.6
9.329,64.6
9.33,64.6
9.331,64.6
9.332,64.6
9.333,64.6
9.334,64.6
9.335,64.4
9.336,64.6
9.337,64.4
9.338000000000001,64.4
9.339,64.2
9.34,64.2
9.341000000000001,64.4
9.342,64.4
9.343,64.2
9.344,64.4
9.345,64.2
9.346,64.0
9.347,64.2
9.348,64.4
9.349,64.2
9.35,64.2
9.351,64.2
9.352,64.0
9.353,64.0
9.354000000000001,64.0
9.355,64.2
9.356,64.0
9.357,64.2
9.358,64.2
9.359,64.0
9.36,64.2
9.361,64.2
9.362,64.0
9.363,64.0
9.364,64.0
9.365,64.0
9.366,64.0
9.367,63.6
9.368,64.0
9.369,63.8
9.370000000000001,64.0
9.371,64.0
9.372,64.0
9.373,64.2
9.374,64.0
9.375,63.8
9.376,64.0
9.377,63.8
9.378,64.0
9.379,64.2
9.38,63.8
9.381,63.6
9.382,63.8
9.383000000000001,64.0
9.384,64.0
9.385,63.8
9.386000000000001,63.6
9.387,64.0
9.388,63.8
9.389,64.0
9.39,63.8
9.391,63.8
9.392,63.8
9.393,63.6
9.394,63.8
9.395,64.0
9.396,64.0
9.397,63.8
9.398,64.0
9.399000000000001,64.2
9.4,64.0
9.401,64.0
9.402000000000001,63.8
9.403,63.8
9.404,63.8
9.405,63.8
9.406,63.8
9.407,64.0
9.408,64.0
9.409,63.8
9.41,64.0
9.411,64.0
9.412,64.0
9.413,64.0
9.414,63.8
9.415000000000001,64.2
9.416,64.0
9.417,64.0
9.418000000000001,64.0
9.419,64.0
9.42,64.0
9.421,64.0
9.422,64.0
9.423,64.0
9.424,64.0
9.425,64.0
9.426,64.2
9.427,64.2
9.428,64.2
9.429,64.2
9.43,64.2
9.431000000000001,64.2
9.432,64.0
9.433,64.0
9.434000000000001,64.2
9.435,64.4
9.436,64.4
9.437,64.4
9.438,64.4
9.439,64.2
9.44,64.4
9.441,64.2
9.442,64.2
9.443,64.4
9.444,64.4
9.445,64.4
9.446,64.4
9.447000000000001,64.6
9.448,64.4
9.449,64.6
9.450000000000001,64.6
9.451,64.4
9.452,64.6
9.453,64.4
9.454,64.6
9.455,64.4
9.456,64.8
9.457,64.8
9.458,64.6
9.459,64.8
9.46,65.0
9.461,64.8
9.462,64.8
9.463000000000001,64.8
9.464,65.0
9.465,64.8
9.466000000000001,64.8
9.467,65.0
9.468,65.0
9.469,65.0
9.47,65.0
9.471,65.0
9.472,65.0
9.473,65.2
9.474,65.0
9.475,65.2
9.476,65.2
9.477,65.0
9.478,65.2
9.479000000000001,65.4
9.48,65.2
9.481,65.4
9.482,65.4
9.483,65.8
9.484,65.2
9.485,65.2
9.486,65.4
9.487,65.4
9.488,65.8
9.489,65.6
9.49,65.6
9.491,65.6
9.492,65.8
9.493,65.8
9.494,65.8
9.495000000000001,65.8
9.496,65.6
9.497,66.0
9.498,66.0
9.499,66.0
9.5,66.0
9.501,65.8
9.502,66.2
9.503,66.0
9.504,66.0
9.505,66.0
9.506,66.2
9.507,66.4
9.508000000000001,66.2
9.509,66.2
9.51,66.2
9.511000000000001,66.2
9.512,66.4
9.513,66.6
9.514,66.6
9.515,66.4
9.516,66.6
9.517,66.4
9.518,66.4
9.519,66.8
9.52,66.8
9.521,66.8
9.522,66.8
9.523,66.8
9.524000000000001,66.8
9.525,67.0
9.526,67.0
9.527000000000001,67.0
9.528,67.0
9.529,67.2
9.53,67.4
9.531,67.2
9.532,67.2
9.533,67.2
9.534,67.4
9.535,67.4
9.536,67.4
9.537,67.4
9.538,67.4
9.539,67.8
9.540000000000001,67.6
9.541,67.6
9.542,67.8
9.543000000000001,67.8
9.544,67.8
9.545,68.0
9.546,68.0
9.547,67.8
9.548,68.0
9.549,68.2
9.55,68.2
9.551,68.0
9.552,68.2
9.553,68.2
9.554,68.2
9.555,68.4
9.556000000000001,68.4
9.557,68.6
9.558,68.4
9.559000000000001,68.6
9.56,68.8
9.561,68.6
9.562,68.8
9.563,68.8
9.564,68.8
9.565,68.8
9.566,68.8
9.567,68.8
9.568,68.8
9.569,69.2
9.57,69.0
9.571,69.0
9.572000000000001,69.2
9.573,69.0
9.574,69.4
9.575000000000001,69.2
9.576,69.4
9.577,69.4
9.578,69.4
9.579,69.4
9.58,69.4
9.581,69.4
9.582,69.6
9.583,69.6
9.584,69.8
9.585,70.0
9.586,69.8
9.587,70.0
9.588000000000001,69.8
9.589,70.2
9.59,69.8
9.591000000000001,70.0
9.592,70.0
9.593,70.2
9.594,70.4
9.595,70.2
9.596,70.4
9.597,70.4
9.598,70.4
9.599,70.4
9.6,70.4
9.601,70.4
9.602,70.6
9.603,70.6
9.604000000000001,70.6
9.605,70.6
9.606,70.8
9.607,70.8
9.608,70.6
9.609,70.8
9.61,70.8
9.611,71.0
9.612,70.8
9.613,71.2
9.614,71.0
9.615,71.0
9.616,71.2
9.617,71.2
9.618,71.2
9.619,71.0
9.620000000000001,71.4
9.621,71.0
9.622,71.4
9.623,71.0
9.624,71.4
9.625,71.4
9.626,71.6
9.627,71.4
9.628,71.6
9.629,71.6
9.63,71.2
9.631,71.6
9.632,71.6
9.633000000000001,71.4
9.634,71.6
9.635,72.0
9.636000000000001,71.4
9.637,71.6
9.638,72.0
9.639,71.8
9.64,71.8
9.641,72.0
9.642,71.8
9.643,72.0
9.644,72.0
9.645,72.0
9.646,72.0
9.647,72.2
9.648,72.2
9.649000000000001,72.2
9.65,72.0
9.651,72.2
9.652000000000001,72.2
9.653,72.0
9.654,72.2
9.655,72.4
9.656,72.2
9.657,72.4
9.658,72.4
9.659,72.4
9.66,72.4
9.661,72.4
9.662,72.4
9.663,72.6
9.664,72.4
9.665000000000001,72.6
9.666,72.4
9.667,72.4
9.668000000000001,72.6
9.669,72.6
9.67,72.6
9.671,72.6
9.672,72.6
9.673,72.6
9.674,72.6
9.675,72.8
9.676,72.6
9.677,72.8
9.678,72.6
9.679,72.6
9.68,72.8
9.681000000000001,72.8
9.682,72.8
9.683,72.6
9.684000000000001,73.0
9.685,72.8
9.686,72.8
9.687,72.6
9.688,72.6
9.689,72.8
9.69,72.8
9.691,72.8
9.692,73.0
9.693,72.8
9.694,73.0
9.695,72.8
9.696,73.0
9.697000000000001,72.8
9.698,72.8
9.699,72.6
9.700000000000001,73.0
9.701,73.0
9.702,72.8
9.703,72.8
9.704,73.0
9.705,73.0
9.706,73.0
9.707,72.8
9.708,72.8
9.709,73.0
9.71,72.8
9.711,73.0
9.712,72.8
9.713000000000001,73.0
9.714,72.8
9.715,72.8
9.716000000000001,72.8
9.717,72.6
9.718,72.8
9.719,72.8
9.72,72.8
9.721,72.8
9.722,72.4
9.723,72.8
9.724,72.8
9.725,73.0
9.726,72.6
9.727,72.8
9.728,72.6
9.729000000000001,72.4
9.73,73.0
9.731,72.6
9.732,72.6
9.733,72.8
9.734,72.6
9.735,72.6
9.736,72.4
9.737,72.6
9.738,72.4
9.739,72.4
9.74,72.6
9.741,72.4
9.742,72.4
9.743,72.6
9.744,72.4
9.745000000000001,72.4
9.746,72.4
9.747,72.6
9.748,72.2
9.749,72.2
9.75,72.2
9.751,72.4
9.752,72.2
9.753,72.2
9.754,72.4
9.755,72.2
9.756,72.2
9.757,72.2
9.758000000000001,72.2
9.759,72.2
9.76,72.4
9.761000000000001,72.0
9.762,72.0
9.763,71.8
9.764,72.0
9.765,71.8
9.766,72.0
9.767,71.8
9.768,72.0
9.769,72.0
9.77,72.0
9.771,71.6
9.772,71.8
9.773,71.8
9.774000000000001,71.6
9.775,71.6
9.776,71.4
9.777000000000001,71.4
9.778,71.4
9.779,71.8
9.78,71.6
9.781,71.2
9.782,71.4
9.783,71.6
9.784,71.4
9.785,71.4
9.786,71.2
9.787,71.2
9.788,71.2
9.789,71.2
9.790000000000001,71.2
9.791,71.2
9.792,71.0
9.793000000000001,71.2
9.794,71.0
9.795,71.0
9.796,71.2
9.797,71.0
9.798,70.8
9.799,71.0
9.8,70.8
9.801,70.6
9.802,70.6
9.803,70.6
9.804,70.8
9.805,70.8
9.806000000000001,70.4
9.807,70.4
9.808,70.4
9.809000000000001,70.6
9.81,70.4
9.811,70.6
9.812,70.2
9.813,70.2
9.814,70.2
9.815,70.2
9.816,70.2
9.817,69.8
9.818,70.0
9.819,69.8
9.82,69.8
9.821,69.8
9.822000000000001,70.0
9.823,69.8
9.824,69.8
9.825000000000001,69.6
9.826,69.6
9.827,69.6
9.828,69.4
9.829,69.4
9.83,69.4
9.831,69.4
9.832,69.2
9.833,69.2
9.834,69.2
9.835,69.2
9.836,69.2
9.837,69.0
9.838000000000001,69.0
9.839,68.8
9.84,68.8
9.841000000000001,69.0
9.842,68.8
9.843,68.6
9.844,68.6
9.845,68.8
9.846,68.6
9.847,68.4
9.848,68.6
9.849,68.4
9.85,68.4
9.851,68.4
9.852,68.6
9.853,68.2
9.854000000000001,68.4
9.855,68.2
9.856,68.2
9.857,68.2
9.858,68.0
9.859,68.0
9.86,68.0
9.861,67.8
9.862,67.8
9.863,67.8
9.864,67.8
9.865,67.8
9.866,68.0
9.867,67.6
9.868,67.6
9.869,67.4
9.870000000000001,67.4
9.871,67.4
9.872,67.4
9.873,67.2
9.874,67.4
9.875,67.2
9.876,67.2
9.877,67.2
9.878,67.0
9.879,67.0
9.88,67.2
9.881,67.0
9.882,66.8
9.883000000000001,66.8
9.884,67.0
9.885,66.8
9.886000000000001,66.8
9.887,66.6
9.888,66.6
9.889,66.6
9.89,66.4
9.891,66.4
9.892,66.4
9.893,66.4
9.894,66.4
9.895,66.4
9.896,66.4
9.897,66.0
9.898,66.2
9.899000000000001,66.2
9.9,66.0
9.901,66.0
9.902000000000001,66.0
9.903,66.2
9.904,66.0
9.905,65.8
9.906,65.8
9.907,65.8
9.908,65.8
9.909,65.8
9.91,65.8
9.911,65.4
9.912,65.6
9.913,65.4
9.914,65.6
9.915000000000001,65.4
9.916,65.6
9.917,65.4
9.918000000000001,65.6
9.919,65.4
9.92,65.2
9.921,65.4
9.922,65.2
9.923,65.4
9.924,65.4
9.925,65.0
9.926,65.2
9.927,64.8
9.928,65.0
9.929,64.8
9.93,65.0
9.931000000000001,64.8
9.932,64.8
9.933,64.8
9.934000000000001,64.8
9.935,64.8
9.936,64.8
9.937,64.6
9.938,65.0
9.939,64.6
9.94,64.6
9.941,64.6
9.942,64.8
9.943,64.4
9.944,64.6
9.945,64.6
9.946,64.4
9.947000000000001,64.4
9.948,64.4
9.949,64.4
9.950000000000001,64.4
9.951,64.4
9.952,64.4
9.953,64.2
9.954,64.6
9.955,64.6
9.956,64.2
9.957,64.4
9.958,64.2
9.959,64.2
9.96,64.2
9.961,64.0
9.962,64.2
9.963000000000001,64.2
9.964,64.2
9.965,64.0
9.966000000000001,64.2
9.967,64.2
9.968,64.2
9.969,64.0
9.97,64.2
9.971,64.2
9.972,64.2
9.973,64.2
9.974,64.0
9.975,64.0
9.976,64.0
9.977,64.0
9.978,64.2
9.979000000000001,64.0
9.98,63.8
9.981,64.0
9.982000000000001,63.8
9.983,64.0
9.984,63.8
9.985,63.8
9.986,63.6
9.987,64.0
9.988,63.8
9.989,64.0
9.99,64.2
9.991,63.8
9.992,64.0
9.993,64.0
9.994,64.0
9.995000000000001,63.8
9.996,63.8
9.997,64.0
9.998,63.8
9.999,63.8
