####### Preamble ##########################
#	byt_nr=1
#	bit_nr=8
#	encdg=BIN
#	bn_fmt=RI
#	byt_or=MSB
#	nr_pt=10000
#	wfid="Ch1, DC coupling, 5.0E0 V/div, 1.0E0 s/div, 10000 points, Sample mode"
#	pt_fmt=Y
#	xincr=1.0E-3
#	pt_off=0
#	xzero=-5.0E0
#	xunit="s"
#	ymult=2.0E-1
#	yzero=0.0E0
#	yoff=5.7E1
#	yunit="V"
#######  Cursor ##########################
#VBA;IND;"s";-3.68E0;-4.02E0;7.1E0;3.4E-1;CURSOR1;3.9E0;-3.2E0;-1.26E1;-2.1E1;8.4E0;CURSOR1;"V";CURSOR1;CURSOR1X;-3.24E1;-2.08E1;9.6E0;4.32E1;RECT;0.0E0;0.0E0;0.0E0;0.0E0;0.0E0;0.0E0;9.9E37;9.9E37;9.9E37;9.9E37;9.9E37;9.9E37;9.9E37;9.9E37;9.9E37;9.9E37;9.9E37;9.9E37
#######  Data ##########################
#RIB;REF1;CH1;1;10000;1
# Delete the above lines to open in excel ######

Time [s],volts [V]
0.0,64.0
0.001,67.6
0.002,66.8
0.003,66.6
0.004,66.6
0.005,66.6
0.006,66.6
0.007,65.0
0.008,65.0
0.009000000000000001,64.8
0.01,65.0
0.011,65.0
0.012,65.0
0.013000000000000001,65.0
0.014,65.0
0.015,65.0
0.016,65.2
0.017,65.2
0.018000000000000002,65.4
0.019,65.2
0.02,65.6
0.021,65.4
0.022,65.2
0.023,65.2
0.024,65.4
0.025,65.4
0.026000000000000002,65.4
0.027,65.6
0.028,65.4
0.029,65.6
0.03,65.8
0.031,65.6
0.032,65.6
0.033,65.8
0.034,65.8
0.035,65.8
0.036000000000000004,66.0
0.037,65.8
0.038,66.0
0.039,66.0
0.04,66.0
0.041,66.0
0.042,66.0
0.043000000000000003,66.0
0.044,66.2
0.045,66.0
0.046,66.2
0.047,66.2
0.048,66.4
0.049,66.4
0.05,66.4
0.051000000000000004,66.4
0.052000000000000005,66.4
0.053,66.6
0.054,66.4
0.055,66.4
0.056,66.6
0.057,66.6
0.058,66.4
0.059000000000000004,66.8
0.06,66.8
0.061,66.8
0.062,66.8
0.063,66.8
0.064,66.8
0.065,67.0
0.066,67.0
0.067,67.0
0.068,67.0
0.069,67.2
0.07,67.0
0.07100000000000001,67.2
0.07200000000000001,67.4
0.073,67.4
0.074,67.4
0.075,67.4
0.076,67.4
0.077,67.2
0.078,67.6
0.079,67.6
0.08,67.6
0.081,67.6
0.082,67.8
0.083,67.6
0.084,67.8
0.085,67.8
0.08600000000000001,67.8
0.08700000000000001,67.8
0.088,68.0
0.089,68.0
0.09,68.2
0.091,68.2
0.092,68.2
0.093,68.2
0.094,68.2
0.095,68.2
0.096,68.2
0.097,68.4
0.098,68.4
0.099,68.4
0.1,68.6
0.101,68.8
0.10200000000000001,68.6
0.10300000000000001,68.6
0.10400000000000001,68.6
0.105,68.6
0.106,69.0
0.107,69.0
0.108,68.8
0.109,69.0
0.11,69.2
0.111,69.2
0.112,69.0
0.113,69.2
0.114,69.4
0.115,69.4
0.116,69.2
0.117,69.4
0.11800000000000001,69.2
0.11900000000000001,69.4
0.12,69.6
0.121,69.4
0.122,69.6
0.123,69.6
0.124,69.8
0.125,69.8
0.126,69.8
0.127,69.8
0.128,70.0
0.129,70.0
0.13,70.0
0.131,70.0
0.132,70.2
0.133,70.2
0.134,70.2
0.135,70.2
0.136,70.2
0.137,70.2
0.138,70.2
0.139,70.4
0.14,70.4
0.14100000000000001,70.6
0.14200000000000002,70.8
0.14300000000000002,70.8
0.14400000000000002,70.6
0.145,70.8
0.146,70.8
0.147,70.8
0.148,70.8
0.149,70.8
0.15,70.8
0.151,70.8
0.152,71.0
0.153,71.0
0.154,71.0
0.155,71.0
0.156,71.2
0.157,71.2
0.158,71.0
0.159,71.0
0.16,71.2
0.161,71.0
0.162,71.2
0.163,71.2
0.164,71.6
0.165,71.4
0.166,71.2
0.167,71.4
0.168,71.4
0.169,71.6
0.17,71.4
0.171,71.6
0.17200000000000001,71.6
0.17300000000000001,71.6
0.17400000000000002,71.6
0.17500000000000002,71.6
0.176,71.8
0.177,72.0
0.178,72.0
0.179,71.8
0.18,71.8
0.181,71.8
0.182,72.0
0.183,72.0
0.184,72.0
0.185,72.0
0.186,71.8
0.187,72.0
0.188,72.2
0.189,72.0
0.19,72.0
0.191,72.2
0.192,72.2
0.193,72.0
0.194,72.0
0.195,72.2
0.196,72.2
0.197,72.4
0.198,72.4
0.199,72.4
0.2,72.4
0.201,72.2
0.202,72.2
0.203,72.4
0.20400000000000001,72.4
0.20500000000000002,72.4
0.20600000000000002,72.4
0.20700000000000002,72.4
0.20800000000000002,72.4
0.209,72.6
0.21,72.4
0.211,72.4
0.212,72.6
0.213,72.4
0.214,72.6
0.215,72.6
0.216,72.8
0.217,72.6
0.218,72.6
0.219,72.8
0.22,72.6
0.221,72.6
0.222,72.6
0.223,72.8
0.224,72.6
0.225,72.8
0.226,73.0
0.227,72.6
0.228,72.8
0.229,73.0
0.23,72.8
0.231,73.0
0.232,72.8
0.233,72.8
0.234,72.8
0.23500000000000001,72.8
0.23600000000000002,73.0
0.23700000000000002,73.0
0.23800000000000002,72.8
0.23900000000000002,72.8
0.24,73.0
0.241,72.8
0.242,72.8
0.243,72.6
0.244,73.0
0.245,72.8
0.246,73.0
0.247,72.8
0.248,72.8
0.249,72.6
0.25,72.8
0.251,72.8
0.252,73.0
0.253,72.6
0.254,72.8
0.255,72.8
0.256,72.6
0.257,73.0
0.258,72.6
0.259,72.4
0.26,72.6
0.261,72.8
0.262,72.8
0.263,73.0
0.264,72.6
0.265,72.8
0.266,72.6
0.267,72.6
0.268,72.6
0.269,72.8
0.27,72.4
0.271,72.8
0.272,72.6
0.273,72.4
0.274,72.6
0.275,72.6
0.276,72.8
0.277,72.6
0.278,72.4
0.279,72.4
0.28,72.4
0.281,72.6
0.28200000000000003,72.6
0.28300000000000003,72.4
0.28400000000000003,72.2
0.28500000000000003,72.4
0.28600000000000003,72.4
0.28700000000000003,72.2
0.28800000000000003,72.2
0.289,72.2
0.29,72.2
0.291,72.4
0.292,72.2
0.293,72.2
0.294,72.4
0.295,72.2
0.296,72.2
0.297,72.2
0.298,72.2
0.299,72.2
0.3,71.8
0.301,72.0
0.302,72.0
0.303,72.0
0.304,72.0
0.305,72.0
0.306,71.8
0.307,71.8
0.308,72.0
0.309,71.4
0.31,71.8
0.311,72.0
0.312,71.8
0.313,71.6
0.314,72.0
0.315,71.8
0.316,71.6
0.317,71.6
0.318,71.6
0.319,71.4
0.32,71.4
0.321,71.4
0.322,71.4
0.323,71.2
0.324,71.2
0.325,71.4
0.326,71.4
0.327,71.4
0.328,71.4
0.329,71.0
0.33,71.0
0.331,71.2
0.332,71.2
0.333,71.2
0.334,70.8
0.335,70.8
0.336,71.0
0.337,71.0
0.338,70.6
0.339,71.0
0.34,70.8
0.341,70.8
0.342,70.6
0.343,70.6
0.34400000000000003,70.6
0.34500000000000003,70.8
0.34600000000000003,70.6
0.34700000000000003,70.6
0.34800000000000003,70.2
0.34900000000000003,70.2
0.35000000000000003,70.4
0.35100000000000003,70.4
0.352,70.2
0.353,70.2
0.354,70.0
0.355,70.2
0.356,70.2
0.357,69.8
0.358,70.0
0.359,69.8
0.36,70.0
0.361,69.8
0.362,69.8
0.363,69.8
0.364,69.6
0.365,69.8
0.366,69.6
0.367,69.8
0.368,69.6
0.369,69.6
0.37,69.4
0.371,69.4
0.372,69.2
0.373,69.2
0.374,69.2
0.375,69.2
0.376,69.4
0.377,69.0
0.378,69.0
0.379,68.8
0.38,69.0
0.381,68.8
0.382,68.8
0.383,68.8
0.384,68.8
0.385,68.6
0.386,68.6
0.387,68.6
0.388,68.6
0.389,68.6
0.39,68.4
0.391,68.6
0.392,68.4
0.393,68.2
0.394,68.4
0.395,68.2
0.396,68.0
0.397,68.2
0.398,68.0
0.399,68.0
0.4,68.0
0.401,67.8
0.402,67.8
0.403,67.8
0.404,67.8
0.405,67.6
0.406,67.6
0.40700000000000003,67.6
0.40800000000000003,67.8
0.40900000000000003,67.6
0.41000000000000003,67.6
0.41100000000000003,67.4
0.41200000000000003,67.4
0.41300000000000003,67.4
0.41400000000000003,67.4
0.41500000000000004,67.2
0.41600000000000004,67.2
0.417,67.2
0.418,67.0
0.419,67.2
0.42,66.8
0.421,66.8
0.422,67.0
0.423,66.8
0.424,66.8
0.425,66.8
0.426,66.8
0.427,66.8
0.428,66.4
0.429,66.8
0.43,66.8
0.431,66.6
0.432,66.6
0.433,66.2
0.434,66.4
0.435,66.4
0.436,66.4
0.437,66.2
0.438,66.2
0.439,66.4
0.44,66.2
0.441,66.2
0.442,66.2
0.443,66.2
0.444,66.2
0.445,66.0
0.446,65.8
0.447,65.8
0.448,65.6
0.449,65.8
0.45,65.8
0.451,65.6
0.452,65.6
0.453,65.8
0.454,65.8
0.455,65.8
0.456,65.6
0.457,65.6
0.458,65.4
0.459,65.2
0.46,65.4
0.461,65.2
0.462,65.4
0.463,65.2
0.464,65.4
0.465,65.2
0.466,65.0
0.467,65.2
0.468,65.0
0.46900000000000003,65.2
0.47000000000000003,64.8
0.47100000000000003,64.8
0.47200000000000003,65.0
0.47300000000000003,64.8
0.47400000000000003,65.0
0.47500000000000003,65.0
0.47600000000000003,64.6
0.47700000000000004,64.6
0.47800000000000004,64.6
0.47900000000000004,64.8
0.48,64.8
0.481,64.6
0.482,64.4
0.483,64.6
0.484,64.6
0.485,64.6
0.486,64.4
0.487,64.4
0.488,64.4
0.489,64.6
0.49,64.2
0.491,64.4
0.492,64.4
0.493,64.2
0.494,64.4
0.495,64.2
0.496,64.2
0.497,64.4
0.498,64.2
0.499,64.4
0.5,64.0
0.501,64.2
0.502,64.2
0.503,64.2
0.504,64.2
0.505,64.0
0.506,64.2
0.507,64.0
0.508,64.0
0.509,64.2
0.51,64.0
0.511,64.2
0.512,64.2
0.513,64.0
0.514,64.0
0.515,64.0
0.516,64.0
0.517,63.8
0.518,63.8
0.519,63.8
0.52,64.2
0.521,64.0
0.522,63.8
0.523,64.2
0.524,63.8
0.525,64.0
0.526,64.0
0.527,63.8
0.528,64.0
0.529,64.0
0.53,63.8
0.531,64.0
0.532,63.8
0.533,63.8
0.534,63.8
0.535,63.8
0.536,63.8
0.537,63.8
0.538,63.8
0.539,64.0
0.54,63.8
0.541,64.0
0.542,64.0
0.543,63.8
0.544,63.8
0.545,63.8
0.546,63.6
0.547,63.8
0.548,64.0
0.549,63.8
0.55,63.8
0.551,63.8
0.552,64.0
0.553,64.0
0.554,64.2
0.555,63.8
0.556,63.8
0.557,63.6
0.558,63.8
0.559,64.2
0.56,64.0
0.561,64.0
0.562,64.0
0.5630000000000001,64.0
0.5640000000000001,64.0
0.5650000000000001,64.2
0.5660000000000001,64.0
0.5670000000000001,64.0
0.5680000000000001,64.0
0.5690000000000001,63.8
0.5700000000000001,64.0
0.5710000000000001,64.0
0.5720000000000001,64.0
0.5730000000000001,64.0
0.5740000000000001,64.2
0.5750000000000001,64.0
0.5760000000000001,64.0
0.577,64.0
0.578,64.2
0.579,64.2
0.58,64.2
0.581,64.0
0.582,64.2
0.583,64.0
0.584,64.2
0.585,64.2
0.586,64.0
0.587,64.2
0.588,64.2
0.589,64.2
0.59,64.2
0.591,64.6
0.592,64.2
0.593,64.4
0.594,64.2
0.595,64.6
0.596,64.4
0.597,64.0
0.598,64.4
0.599,64.4
0.6,64.6
0.601,64.6
0.602,64.6
0.603,64.4
0.604,64.4
0.605,64.6
0.606,64.6
0.607,64.4
0.608,64.6
0.609,64.4
0.61,64.6
0.611,64.8
0.612,64.6
0.613,64.6
0.614,64.8
0.615,64.8
0.616,64.6
0.617,64.8
0.618,64.8
0.619,65.0
0.62,64.8
0.621,65.0
0.622,65.2
0.623,65.0
0.624,65.2
0.625,65.0
0.626,65.2
0.627,65.2
0.628,65.2
0.629,65.2
0.63,65.2
0.631,65.0
0.632,65.2
0.633,65.2
0.634,65.4
0.635,65.2
0.636,65.4
0.637,65.4
0.638,65.6
0.639,65.4
0.64,65.6
0.641,65.8
0.642,65.8
0.643,65.6
0.644,65.6
0.645,65.6
0.646,65.6
0.647,65.8
0.648,65.8
0.649,65.6
0.65,65.8
0.651,65.8
0.652,66.0
0.653,66.0
0.654,65.8
0.655,66.0
0.656,66.2
0.657,66.0
0.658,66.0
0.659,66.4
0.66,66.2
0.661,66.0
0.662,66.2
0.663,66.2
0.664,66.4
0.665,66.4
0.666,66.2
0.667,66.4
0.668,66.4
0.669,66.4
0.67,66.6
0.671,66.6
0.672,66.6
0.673,66.8
0.674,66.6
0.675,66.8
0.676,66.8
0.677,66.8
0.678,67.0
0.679,67.0
0.68,67.0
0.681,67.0
0.682,67.2
0.683,67.0
0.684,67.2
0.685,67.2
0.686,67.4
0.687,67.2
0.6880000000000001,67.4
0.6890000000000001,67.4
0.6900000000000001,67.6
0.6910000000000001,67.6
0.6920000000000001,67.6
0.6930000000000001,67.6
0.6940000000000001,67.6
0.6950000000000001,68.0
0.6960000000000001,67.6
0.6970000000000001,67.8
0.6980000000000001,68.0
0.6990000000000001,68.0
0.7000000000000001,68.0
0.7010000000000001,68.0
0.7020000000000001,68.0
0.7030000000000001,68.2
0.704,68.0
0.705,68.2
0.706,68.0
0.707,68.0
0.708,68.4
0.709,68.2
0.71,68.4
0.711,68.6
0.712,68.4
0.713,68.6
0.714,68.6
0.715,68.6
0.716,68.6
0.717,68.6
0.718,68.8
0.719,68.8
0.72,68.8
0.721,68.8
0.722,68.8
0.723,69.0
0.724,69.0
0.725,69.2
0.726,69.2
0.727,69.2
0.728,69.0
0.729,69.4
0.73,69.4
0.731,69.2
0.732,69.4
0.733,69.6
0.734,69.6
0.735,69.6
0.736,69.8
0.737,70.0
0.738,69.6
0.739,70.0
0.74,69.8
0.741,70.0
0.742,70.0
0.743,69.8
0.744,70.0
0.745,69.8
0.746,70.4
0.747,70.4
0.748,70.2
0.749,70.2
0.75,70.4
0.751,70.4
0.752,70.4
0.753,70.2
0.754,70.6
0.755,70.4
0.756,70.4
0.757,70.6
0.758,70.8
0.759,70.8
0.76,70.6
0.761,71.0
0.762,70.6
0.763,71.0
0.764,70.8
0.765,70.8
0.766,70.8
0.767,71.0
0.768,70.8
0.769,71.0
0.77,71.2
0.771,71.0
0.772,71.2
0.773,70.8
0.774,71.2
0.775,71.2
0.776,71.2
0.777,71.2
0.778,71.4
0.779,71.4
0.78,71.4
0.781,71.6
0.782,71.6
0.783,71.4
0.784,71.6
0.785,71.6
0.786,71.4
0.787,71.6
0.788,71.6
0.789,71.8
0.79,71.6
0.791,71.8
0.792,72.0
0.793,72.0
0.794,71.6
0.795,71.8
0.796,72.0
0.797,71.8
0.798,72.0
0.799,72.0
0.8,72.2
0.801,71.8
0.802,72.0
0.803,72.0
0.804,72.2
0.805,72.0
0.806,72.2
0.807,72.0
0.808,72.2
0.809,72.2
0.81,72.4
0.811,72.2
0.812,72.2
0.8130000000000001,72.4
0.8140000000000001,72.2
0.8150000000000001,72.2
0.8160000000000001,72.2
0.8170000000000001,72.4
0.8180000000000001,72.4
0.8190000000000001,72.4
0.8200000000000001,72.6
0.8210000000000001,72.4
0.8220000000000001,72.6
0.8230000000000001,72.4
0.8240000000000001,72.6
0.8250000000000001,72.6
0.8260000000000001,72.6
0.8270000000000001,72.6
0.8280000000000001,72.6
0.8290000000000001,72.4
0.8300000000000001,72.6
0.8310000000000001,72.8
0.8320000000000001,72.8
0.833,72.8
0.834,72.8
0.835,72.6
0.836,72.8
0.837,72.8
0.838,72.8
0.839,72.8
0.84,72.8
0.841,72.8
0.842,72.8
0.843,72.6
0.844,72.6
0.845,72.8
0.846,73.0
0.847,72.8
0.848,72.8
0.849,72.8
0.85,72.8
0.851,73.0
0.852,72.6
0.853,72.8
0.854,72.6
0.855,72.8
0.856,72.8
0.857,73.0
0.858,73.0
0.859,72.8
0.86,72.8
0.861,72.8
0.862,72.8
0.863,72.8
0.864,72.8
0.865,72.8
0.866,72.8
0.867,72.8
0.868,72.6
0.869,72.8
0.87,72.8
0.871,72.8
0.872,72.6
0.873,72.6
0.874,72.8
0.875,72.8
0.876,72.8
0.877,72.8
0.878,72.4
0.879,72.6
0.88,72.6
0.881,72.6
0.882,72.8
0.883,72.6
0.884,72.6
0.885,72.6
0.886,72.6
0.887,72.4
0.888,72.4
0.889,72.4
0.89,72.6
0.891,72.6
0.892,72.4
0.893,72.4
0.894,72.2
0.895,72.4
0.896,72.2
0.897,72.6
0.898,72.4
0.899,72.4
0.9,72.4
0.901,72.4
0.902,72.4
0.903,72.2
0.904,72.2
0.905,72.2
0.906,72.2
0.907,72.2
0.908,72.4
0.909,72.2
0.91,72.2
0.911,72.0
0.912,72.2
0.913,72.0
0.914,72.0
0.915,72.0
0.916,72.0
0.917,72.0
0.918,72.0
0.919,72.0
0.92,71.8
0.921,72.0
0.922,72.0
0.923,71.8
0.924,72.0
0.925,72.0
0.926,71.8
0.927,71.6
0.928,71.8
0.929,71.6
0.93,71.6
0.931,71.4
0.932,71.4
0.933,71.4
0.934,71.4
0.935,71.6
0.936,71.4
0.937,71.4
0.9380000000000001,71.4
0.9390000000000001,71.4
0.9400000000000001,71.4
0.9410000000000001,71.2
0.9420000000000001,71.0
0.9430000000000001,71.0
0.9440000000000001,71.0
0.9450000000000001,71.2
0.9460000000000001,71.0
0.9470000000000001,71.0
0.9480000000000001,71.0
0.9490000000000001,71.0
0.9500000000000001,71.0
0.9510000000000001,70.8
0.9520000000000001,70.8
0.9530000000000001,70.6
0.9540000000000001,70.6
0.9550000000000001,70.8
0.9560000000000001,70.8
0.9570000000000001,70.8
0.9580000000000001,70.6
0.9590000000000001,70.6
0.96,70.4
0.961,70.4
0.962,70.6
0.963,70.2
0.964,70.4
0.965,70.2
0.966,70.2
0.967,70.2
0.968,70.2
0.969,70.0
0.97,70.2
0.971,69.8
0.972,70.0
0.973,69.8
0.974,70.0
0.975,70.0
0.976,69.8
0.977,69.6
0.978,69.6
0.979,69.6
0.98,69.8
0.981,69.6
0.982,69.4
0.983,69.4
0.984,69.4
0.985,69.4
0.986,69.2
0.987,69.4
0.988,69.4
0.989,69.0
0.99,69.2
0.991,69.0
0.992,69.0
0.993,68.8
0.994,69.0
0.995,68.8
0.996,68.8
0.997,68.8
0.998,68.6
0.999,68.8
1.0,68.8
1.0010000000000001,68.6
1.002,68.6
1.0030000000000001,68.6
1.004,68.4
1.0050000000000001,68.4
1.006,68.4
1.0070000000000001,68.2
1.008,68.2
1.0090000000000001,68.0
1.01,68.2
1.0110000000000001,68.2
1.012,68.0
1.0130000000000001,68.0
1.014,68.0
1.0150000000000001,68.0
1.016,67.8
1.0170000000000001,67.8
1.018,67.8
1.0190000000000001,67.6
1.02,67.6
1.0210000000000001,67.6
1.022,67.8
1.0230000000000001,67.6
1.024,67.6
1.025,67.4
1.026,67.4
1.027,67.4
1.028,67.2
1.029,67.2
1.03,67.2
1.031,67.0
1.032,67.0
1.033,67.0
1.034,67.2
1.035,66.8
1.036,66.8
1.037,67.0
1.038,66.8
1.039,66.6
1.04,66.8
1.041,66.6
1.042,66.4
1.043,66.6
1.044,66.6
1.045,66.4
1.046,66.4
1.047,66.6
1.048,66.4
1.049,66.2
1.05,66.2
1.051,66.2
1.052,66.0
1.053,66.2
1.054,66.2
1.055,66.2
1.056,66.0
1.057,65.8
1.058,66.2
1.059,66.0
1.06,65.8
1.061,65.8
1.062,65.6
1.063,65.8
1.064,65.8
1.065,65.4
1.066,65.6
1.067,65.8
1.068,65.8
1.069,65.6
1.07,65.6
1.071,65.6
1.072,65.4
1.073,65.4
1.074,65.4
1.075,65.2
1.076,65.2
1.077,65.2
1.078,65.2
1.079,65.0
1.08,65.0
1.081,64.8
1.082,64.8
1.083,64.8
1.084,64.8
1.085,64.8
1.086,65.0
1.087,65.0
1.088,64.8
1.089,64.8
1.09,64.8
1.091,64.8
1.092,64.6
1.093,64.6
1.094,64.6
1.095,64.8
1.096,64.6
1.097,64.6
1.098,64.4
1.099,64.6
1.1,64.8
1.101,64.4
1.102,64.4
1.103,64.6
1.104,64.2
1.105,64.4
1.106,64.4
1.107,64.4
1.108,64.4
1.109,64.4
1.11,64.6
1.111,64.2
1.112,64.2
1.113,64.2
1.114,64.2
1.115,64.2
1.116,64.2
1.117,64.2
1.118,64.0
1.119,64.2
1.12,64.2
1.121,64.0
1.122,64.2
1.123,64.2
1.124,64.2
1.125,64.2
1.1260000000000001,63.8
1.127,64.0
1.1280000000000001,64.0
1.129,64.2
1.1300000000000001,64.0
1.131,64.2
1.1320000000000001,64.2
1.133,64.2
1.1340000000000001,64.0
1.135,63.8
1.1360000000000001,64.0
1.137,63.8
1.1380000000000001,64.0
1.139,63.8
1.1400000000000001,63.8
1.141,63.6
1.1420000000000001,64.0
1.143,64.0
1.1440000000000001,63.8
1.145,63.8
1.1460000000000001,63.8
1.147,63.8
1.1480000000000001,64.0
1.149,63.6
1.1500000000000001,64.0
1.151,63.8
1.1520000000000001,63.8
1.153,63.8
1.154,63.8
1.155,64.0
1.156,63.8
1.157,63.8
1.158,63.8
1.159,64.0
1.16,64.0
1.161,64.0
1.162,63.8
1.163,64.0
1.164,64.0
1.165,63.8
1.166,63.8
1.167,63.8
1.168,64.0
1.169,63.8
1.17,63.8
1.171,64.0
1.172,63.8
1.173,63.8
1.174,63.8
1.175,63.6
1.176,64.0
1.177,64.0
1.178,64.0
1.179,64.0
1.18,63.8
1.181,64.2
1.182,64.0
1.183,64.0
1.184,64.0
1.185,64.0
1.186,64.2
1.187,64.0
1.188,64.2
1.189,64.2
1.19,64.2
1.191,64.0
1.192,64.2
1.193,64.0
1.194,64.2
1.195,64.2
1.196,64.2
1.197,64.0
1.198,64.2
1.199,64.2
1.2,64.2
1.201,64.0
1.202,64.4
1.203,64.2
1.204,64.2
1.205,64.2
1.206,64.4
1.207,64.4
1.208,64.4
1.209,64.6
1.21,64.4
1.211,64.4
1.212,64.2
1.213,64.6
1.214,64.4
1.215,64.4
1.216,64.6
1.217,64.6
1.218,64.4
1.219,64.6
1.22,64.6
1.221,64.6
1.222,64.6
1.223,64.6
1.224,64.8
1.225,64.6
1.226,64.8
1.227,64.8
1.228,64.8
1.229,64.8
1.23,65.0
1.231,64.8
1.232,65.0
1.233,65.0
1.234,64.8
1.235,65.0
1.236,65.0
1.237,64.8
1.238,65.0
1.239,65.0
1.24,64.8
1.241,65.2
1.242,65.4
1.243,65.0
1.244,65.2
1.245,65.4
1.246,65.2
1.247,65.2
1.248,65.2
1.249,65.2
1.25,65.2
1.2510000000000001,65.4
1.252,65.4
1.2530000000000001,65.6
1.254,65.4
1.2550000000000001,65.4
1.256,65.8
1.2570000000000001,65.8
1.258,65.8
1.2590000000000001,65.8
1.26,65.6
1.2610000000000001,65.8
1.262,65.6
1.2630000000000001,65.8
1.264,65.8
1.2650000000000001,65.8
1.266,66.0
1.2670000000000001,66.0
1.268,65.8
1.2690000000000001,66.0
1.27,66.0
1.2710000000000001,66.2
1.272,66.2
1.2730000000000001,66.2
1.274,66.2
1.2750000000000001,66.2
1.276,66.4
1.2770000000000001,66.4
1.278,66.4
1.2790000000000001,66.2
1.28,66.4
1.281,66.4
1.282,66.4
1.283,66.6
1.284,66.6
1.285,66.8
1.286,66.8
1.287,66.8
1.288,66.8
1.289,67.0
1.29,66.8
1.291,67.0
1.292,67.2
1.293,67.0
1.294,67.0
1.295,67.0
1.296,67.0
1.297,67.2
1.298,67.2
1.299,67.4
1.3,67.2
1.301,67.2
1.302,67.4
1.303,67.2
1.304,67.4
1.305,67.4
1.306,67.6
1.307,67.6
1.308,67.6
1.309,67.8
1.31,67.8
1.311,67.8
1.312,67.8
1.313,67.8
1.314,68.0
1.315,68.2
1.316,68.0
1.317,68.0
1.318,68.0
1.319,68.2
1.32,68.2
1.321,68.2
1.322,68.2
1.323,68.4
1.324,68.2
1.325,68.6
1.326,68.4
1.327,68.6
1.328,68.6
1.329,68.6
1.33,68.6
1.331,68.6
1.332,68.8
1.333,68.8
1.334,68.8
1.335,68.8
1.336,69.0
1.337,69.2
1.338,69.0
1.339,69.2
1.34,69.2
1.341,69.2
1.342,69.2
1.343,69.4
1.344,69.4
1.345,69.6
1.346,69.2
1.347,69.4
1.348,69.6
1.349,69.6
1.35,69.8
1.351,69.8
1.352,70.0
1.353,69.8
1.354,69.8
1.355,70.0
1.356,70.0
1.357,70.0
1.358,70.0
1.359,69.8
1.36,70.2
1.361,70.2
1.362,70.2
1.363,70.2
1.364,70.4
1.365,70.4
1.366,70.4
1.367,70.4
1.368,70.4
1.369,70.4
1.37,70.4
1.371,70.6
1.372,70.8
1.373,70.6
1.374,70.6
1.375,70.6
1.3760000000000001,71.0
1.377,70.8
1.3780000000000001,70.6
1.379,71.0
1.3800000000000001,71.0
1.381,71.0
1.3820000000000001,71.0
1.383,71.0
1.3840000000000001,71.2
1.385,71.2
1.3860000000000001,71.2
1.387,71.2
1.3880000000000001,71.2
1.389,71.2
1.3900000000000001,71.4
1.391,71.2
1.3920000000000001,71.6
1.393,71.6
1.3940000000000001,71.6
1.395,71.2
1.3960000000000001,71.4
1.397,71.6
1.3980000000000001,71.6
1.399,71.4
1.4000000000000001,71.6
1.401,71.8
1.4020000000000001,71.8
1.403,72.0
1.4040000000000001,71.8
1.405,71.6
1.4060000000000001,72.0
1.407,72.0
1.408,71.8
1.409,71.8
1.41,71.8
1.411,72.0
1.412,71.8
1.413,72.0
1.414,72.0
1.415,72.0
1.416,72.2
1.417,72.2
1.418,72.2
1.419,72.2
1.42,72.2
1.421,72.2
1.422,72.2
1.423,72.0
1.424,72.4
1.425,72.4
1.426,72.6
1.427,72.4
1.428,72.2
1.429,72.4
1.43,72.4
1.431,72.4
1.432,72.6
1.433,72.6
1.434,72.6
1.435,72.4
1.436,72.4
1.437,72.4
1.438,72.6
1.439,72.6
1.44,72.6
1.441,72.6
1.442,72.6
1.443,72.8
1.444,72.6
1.445,72.6
1.446,72.6
1.447,72.6
1.448,72.4
1.449,72.8
1.45,72.8
1.451,72.8
1.452,73.0
1.453,72.8
1.454,72.8
1.455,72.8
1.456,72.8
1.457,72.8
1.458,72.8
1.459,72.8
1.46,72.8
1.461,72.8
1.462,73.0
1.463,72.8
1.464,72.8
1.465,73.0
1.466,72.6
1.467,72.8
1.468,73.0
1.469,73.0
1.47,72.8
1.471,73.0
1.472,72.8
1.473,72.8
1.474,72.8
1.475,73.0
1.476,72.8
1.477,72.6
1.478,72.8
1.479,72.8
1.48,72.8
1.481,72.6
1.482,72.8
1.483,72.8
1.484,73.0
1.485,72.8
1.486,72.8
1.487,72.6
1.488,72.4
1.489,72.8
1.49,72.6
1.491,72.8
1.492,73.0
1.493,72.6
1.494,72.6
1.495,72.6
1.496,72.8
1.497,72.8
1.498,72.6
1.499,72.8
1.5,72.6
1.5010000000000001,72.4
1.502,72.6
1.5030000000000001,72.8
1.504,72.6
1.5050000000000001,72.6
1.506,72.8
1.5070000000000001,72.4
1.508,72.4
1.5090000000000001,72.2
1.51,72.6
1.5110000000000001,72.2
1.512,72.6
1.5130000000000001,72.4
1.514,72.2
1.5150000000000001,72.4
1.516,72.4
1.5170000000000001,72.4
1.518,72.4
1.5190000000000001,72.4
1.52,72.4
1.5210000000000001,72.2
1.522,71.8
1.5230000000000001,72.0
1.524,72.0
1.5250000000000001,72.0
1.526,72.2
1.5270000000000001,72.0
1.528,72.0
1.5290000000000001,72.2
1.53,72.0
1.5310000000000001,72.0
1.532,72.0
1.5330000000000001,72.0
1.534,72.0
1.5350000000000001,72.0
1.536,71.8
1.537,71.8
1.538,71.8
1.539,71.8
1.54,71.8
1.541,71.6
1.542,71.6
1.543,72.0
1.544,71.6
1.545,71.4
1.546,71.6
1.547,71.4
1.548,71.4
1.549,71.4
1.55,71.4
1.551,71.2
1.552,71.2
1.553,71.4
1.554,71.2
1.555,71.4
1.556,71.2
1.557,71.0
1.558,71.2
1.559,70.8
1.56,70.8
1.561,70.8
1.562,71.0
1.563,71.0
1.564,70.8
1.565,70.6
1.566,70.8
1.567,70.8
1.568,70.8
1.569,70.8
1.57,70.8
1.571,70.4
1.572,70.4
1.573,70.4
1.574,70.4
1.575,70.4
1.576,70.4
1.577,70.4
1.578,70.4
1.579,70.2
1.58,70.2
1.581,70.4
1.582,70.4
1.583,70.2
1.584,70.4
1.585,70.2
1.586,70.0
1.587,69.6
1.588,70.0
1.589,69.8
1.59,69.8
1.591,69.8
1.592,69.6
1.593,69.4
1.594,69.6
1.595,69.6
1.596,69.6
1.597,69.4
1.598,69.6
1.599,69.2
1.6,69.4
1.601,69.2
1.602,69.2
1.603,69.0
1.604,69.2
1.605,69.2
1.606,68.8
1.607,69.0
1.608,69.0
1.609,68.8
1.61,68.8
1.611,69.0
1.612,68.6
1.613,68.6
1.614,68.4
1.615,68.6
1.616,68.4
1.617,68.6
1.618,68.4
1.619,68.4
1.62,68.2
1.621,68.2
1.622,68.2
1.623,68.2
1.624,68.0
1.625,68.0
1.6260000000000001,68.0
1.627,68.0
1.6280000000000001,68.0
1.629,67.8
1.6300000000000001,67.8
1.631,67.8
1.6320000000000001,67.6
1.633,67.6
1.6340000000000001,67.6
1.635,67.6
1.6360000000000001,67.6
1.637,67.6
1.6380000000000001,67.6
1.639,67.6
1.6400000000000001,67.2
1.641,67.2
1.6420000000000001,67.2
1.643,67.2
1.6440000000000001,67.2
1.645,67.2
1.6460000000000001,67.2
1.647,66.8
1.6480000000000001,67.0
1.649,67.0
1.6500000000000001,66.8
1.651,66.8
1.6520000000000001,66.8
1.653,66.8
1.6540000000000001,66.6
1.655,66.8
1.6560000000000001,66.8
1.657,66.6
1.6580000000000001,66.4
1.659,66.4
1.6600000000000001,66.8
1.661,66.4
1.6620000000000001,66.4
1.663,66.4
1.6640000000000001,66.2
1.665,66.2
1.666,66.2
1.667,66.2
1.668,66.2
1.669,66.2
1.67,66.0
1.671,66.0
1.672,66.0
1.673,66.0
1.674,65.8
1.675,65.8
1.676,65.8
1.677,65.8
1.678,65.8
1.679,65.6
1.68,65.6
1.681,65.6
1.682,65.8
1.683,65.4
1.684,65.4
1.685,65.4
1.686,65.4
1.687,65.4
1.688,65.4
1.689,65.2
1.69,65.2
1.691,65.4
1.692,65.0
1.693,65.2
1.694,65.2
1.695,65.2
1.696,64.6
1.697,65.0
1.698,64.8
1.699,64.8
1.7,65.0
1.701,65.0
1.702,64.8
1.703,65.0
1.704,64.8
1.705,64.8
1.706,64.6
1.707,64.6
1.708,64.8
1.709,64.4
1.71,64.6
1.711,64.6
1.712,64.6
1.713,64.4
1.714,64.6
1.715,64.6
1.716,64.4
1.717,64.6
1.718,64.4
1.719,64.4
1.72,64.2
1.721,64.4
1.722,64.2
1.723,64.4
1.724,64.4
1.725,64.2
1.726,64.2
1.727,64.4
1.728,64.0
1.729,64.2
1.73,64.2
1.731,64.2
1.732,64.0
1.733,64.0
1.734,63.8
1.735,64.0
1.736,64.4
1.737,64.0
1.738,64.0
1.739,63.8
1.74,64.2
1.741,64.2
1.742,64.2
1.743,63.8
1.744,64.0
1.745,64.0
1.746,63.8
1.747,64.0
1.748,64.2
1.749,64.0
1.75,64.0
1.7510000000000001,64.0
1.752,64.0
1.7530000000000001,64.0
1.754,64.0
1.7550000000000001,64.0
1.756,64.0
1.7570000000000001,64.0
1.758,64.0
1.7590000000000001,64.0
1.76,63.8
1.7610000000000001,63.8
1.762,63.8
1.7630000000000001,63.8
1.764,64.0
1.7650000000000001,63.8
1.766,63.8
1.7670000000000001,64.0
1.768,63.8
1.7690000000000001,63.6
1.77,64.0
1.7710000000000001,63.8
1.772,64.0
1.7730000000000001,63.6
1.774,63.8
1.7750000000000001,64.0
1.776,63.8
1.7770000000000001,63.8
1.778,64.0
1.7790000000000001,64.2
1.78,64.0
1.7810000000000001,64.2
1.782,64.0
1.7830000000000001,63.8
1.784,64.0
1.7850000000000001,63.8
1.786,64.0
1.7870000000000001,63.8
1.788,64.0
1.7890000000000001,64.0
1.79,64.0
1.7910000000000001,63.8
1.792,63.8
1.793,64.2
1.794,64.0
1.795,64.0
1.796,64.2
1.797,63.8
1.798,64.0
1.799,64.2
1.8,64.2
1.801,64.0
1.802,64.2
1.803,64.2
1.804,64.0
1.805,63.8
1.806,64.0
1.807,64.2
1.808,64.0
1.809,64.2
1.81,64.2
1.811,64.0
1.812,64.2
1.813,64.2
1.814,64.2
1.815,64.2
1.816,64.2
1.817,64.2
1.818,64.4
1.819,64.2
1.82,64.4
1.821,64.2
1.822,64.6
1.823,64.4
1.824,64.4
1.825,64.4
1.826,64.6
1.827,64.2
1.828,64.6
1.829,64.6
1.83,64.6
1.831,64.6
1.832,64.6
1.833,64.6
1.834,64.6
1.835,64.8
1.836,64.8
1.837,64.6
1.838,64.4
1.839,64.8
1.84,64.8
1.841,64.6
1.842,64.6
1.843,64.6
1.844,64.6
1.845,65.0
1.846,64.8
1.847,65.0
1.848,65.0
1.849,65.0
1.85,65.0
1.851,65.0
1.852,65.2
1.853,65.0
1.854,65.2
1.855,65.0
1.856,65.2
1.857,65.2
1.858,65.2
1.859,65.2
1.86,65.4
1.861,65.4
1.862,65.4
1.863,65.0
1.864,65.2
1.865,65.6
1.866,65.6
1.867,65.6
1.868,65.6
1.869,65.4
1.87,65.6
1.871,65.8
1.872,65.8
1.873,65.6
1.874,65.8
1.875,65.8
1.8760000000000001,65.8
1.877,65.6
1.8780000000000001,66.0
1.879,65.8
1.8800000000000001,66.0
1.881,66.0
1.8820000000000001,66.0
1.883,66.0
1.8840000000000001,66.0
1.885,66.2
1.8860000000000001,66.0
1.887,66.4
1.8880000000000001,66.4
1.889,66.2
1.8900000000000001,66.2
1.891,66.2
1.8920000000000001,66.4
1.893,66.4
1.8940000000000001,66.4
1.895,66.4
1.8960000000000001,66.6
1.897,66.4
1.8980000000000001,66.6
1.899,66.6
1.9000000000000001,66.6
1.901,66.6
1.9020000000000001,67.0
1.903,66.8
1.9040000000000001,66.8
1.905,67.0
1.9060000000000001,67.0
1.907,67.2
1.9080000000000001,66.8
1.909,67.2
1.9100000000000001,67.2
1.911,67.0
1.9120000000000001,67.2
1.913,67.2
1.9140000000000001,67.2
1.915,67.4
1.9160000000000001,67.6
1.917,67.6
1.9180000000000001,67.4
1.919,67.6
1.92,67.6
1.921,67.6
1.922,67.6
1.923,67.8
1.924,67.8
1.925,67.6
1.926,67.8
1.927,68.0
1.928,67.8
1.929,68.0
1.93,68.0
1.931,68.2
1.932,68.2
1.933,68.0
1.934,68.4
1.935,68.4
1.936,68.2
1.937,68.2
1.938,68.6
1.939,68.4
1.94,68.6
1.941,68.8
1.942,68.6
1.943,68.6
1.944,68.8
1.945,68.8
1.946,68.8
1.947,68.8
1.948,69.0
1.949,68.8
1.95,69.0
1.951,69.0
1.952,69.2
1.953,69.2
1.954,69.2
1.955,69.2
1.956,69.4
1.957,69.2
1.958,69.4
1.959,69.2
1.96,69.6
1.961,69.4
1.962,69.4
1.963,69.6
1.964,69.8
1.965,69.6
1.966,69.8
1.967,69.8
1.968,69.8
1.969,70.0
1.97,70.0
1.971,70.0
1.972,70.0
1.973,70.2
1.974,70.0
1.975,70.2
1.976,70.0
1.977,70.4
1.978,70.4
1.979,70.4
1.98,70.4
1.981,70.6
1.982,70.6
1.983,70.2
1.984,70.8
1.985,70.6
1.986,70.8
1.987,70.6
1.988,70.8
1.989,70.6
1.99,70.8
1.991,70.8
1.992,70.8
1.993,70.8
1.994,71.0
1.995,70.8
1.996,71.0
1.997,71.0
1.998,71.2
1.999,71.0
2.0,71.2
2.001,71.4
2.0020000000000002,71.0
2.003,71.2
2.004,71.2
2.005,71.4
2.0060000000000002,71.4
2.007,71.4
2.008,71.6
2.009,71.6
2.0100000000000002,71.6
2.011,71.6
2.012,71.4
2.013,71.8
2.0140000000000002,71.6
2.015,71.6
2.016,71.8
2.017,71.8
2.0180000000000002,72.0
2.019,71.8
2.02,72.0
2.021,71.8
2.0220000000000002,72.0
2.023,72.0
2.024,72.0
2.025,72.0
2.0260000000000002,72.0
2.027,72.0
2.028,72.2
2.029,72.2
2.0300000000000002,72.0
2.031,72.0
2.032,72.0
2.033,72.2
2.0340000000000003,72.2
2.035,72.0
2.036,72.2
2.037,72.4
2.0380000000000003,72.2
2.039,72.4
2.04,72.2
2.041,72.4
2.0420000000000003,72.2
2.043,72.2
2.044,72.6
2.045,72.4
2.0460000000000003,72.4
2.047,72.4
2.048,72.6
2.049,72.6
2.05,72.6
2.051,72.4
2.052,72.4
2.053,72.8
2.054,72.6
2.055,72.4
2.056,72.4
2.057,72.8
2.058,72.6
2.059,72.8
2.06,72.6
2.061,72.6
2.062,72.6
2.063,72.8
2.064,72.6
2.065,72.8
2.066,72.8
2.067,72.8
2.068,73.0
2.069,72.8
2.07,72.8
2.071,72.8
2.072,73.0
2.073,72.8
2.074,72.8
2.075,72.6
2.076,73.0
2.077,72.8
2.078,72.8
2.079,72.8
2.08,72.8
2.081,73.0
2.082,72.8
2.083,73.0
2.084,72.8
2.085,72.8
2.086,72.8
2.087,72.8
2.088,72.8
2.089,73.0
2.09,72.8
2.091,73.0
2.092,72.8
2.093,72.8
2.094,72.8
2.095,73.0
2.096,72.8
2.097,72.8
2.098,72.6
2.099,72.8
2.1,72.8
2.101,72.6
2.102,72.6
2.103,72.8
2.104,72.8
2.105,72.8
2.106,72.8
2.107,72.6
2.108,72.8
2.109,72.8
2.11,72.6
2.111,72.8
2.112,72.6
2.113,72.6
2.114,72.6
2.115,72.6
2.116,72.4
2.117,72.8
2.118,72.6
2.119,72.4
2.12,72.4
2.121,72.6
2.122,72.6
2.123,72.4
2.124,72.4
2.125,72.4
2.126,72.6
2.1270000000000002,72.4
2.128,72.6
2.129,72.4
2.13,72.2
2.1310000000000002,72.0
2.132,72.4
2.133,72.2
2.134,72.2
2.1350000000000002,72.2
2.136,72.2
2.137,72.4
2.138,72.4
2.1390000000000002,71.8
2.14,72.0
2.141,71.8
2.142,71.8
2.1430000000000002,72.0
2.144,72.0
2.145,72.2
2.146,71.8
2.1470000000000002,72.2
2.148,72.0
2.149,72.0
2.15,72.0
2.1510000000000002,71.8
2.152,71.6
2.153,71.8
2.154,71.6
2.1550000000000002,71.4
2.156,71.6
2.157,71.6
2.158,71.6
2.1590000000000003,71.4
2.16,71.2
2.161,71.4
2.162,71.6
2.1630000000000003,71.4
2.164,71.2
2.165,71.2
2.166,71.2
2.1670000000000003,71.4
2.168,71.2
2.169,71.4
2.17,71.2
2.1710000000000003,71.2
2.172,71.0
2.173,71.0
2.174,70.8
2.1750000000000003,71.0
2.176,71.0
2.177,70.8
2.178,70.8
2.179,71.0
2.18,70.8
2.181,70.6
2.182,70.6
2.183,70.6
2.184,70.8
2.185,70.4
2.186,70.6
2.187,70.4
2.188,70.4
2.189,70.6
2.19,70.2
2.191,70.2
2.192,70.4
2.193,70.0
2.194,70.2
2.195,70.2
2.196,70.2
2.197,70.0
2.198,70.2
2.199,70.2
2.2,69.8
2.201,69.8
2.202,69.6
2.203,70.0
2.204,69.8
2.205,69.8
2.206,69.6
2.207,69.4
2.208,69.8
2.209,69.6
2.21,69.4
2.211,69.6
2.212,69.4
2.213,69.2
2.214,69.2
2.215,69.2
2.216,69.2
2.217,69.0
2.218,69.0
2.219,69.0
2.22,68.8
2.221,68.8
2.222,69.0
2.223,68.8
2.224,68.8
2.225,68.6
2.226,68.6
2.227,68.6
2.228,68.4
2.229,68.4
2.23,68.2
2.231,68.4
2.232,68.4
2.233,68.2
2.234,68.4
2.235,68.2
2.236,68.2
2.237,68.2
2.238,68.0
2.239,68.2
2.24,67.8
2.241,68.0
2.242,67.8
2.243,67.8
2.244,67.8
2.245,67.8
2.246,67.6
2.247,67.6
2.248,67.8
2.249,67.6
2.25,67.4
2.251,67.6
2.2520000000000002,67.6
2.253,67.2
2.254,67.4
2.255,67.4
2.2560000000000002,67.2
2.257,67.2
2.258,67.2
2.259,67.0
2.2600000000000002,67.2
2.261,67.0
2.262,67.0
2.263,66.8
2.2640000000000002,67.0
2.265,66.8
2.266,66.8
2.267,66.8
2.2680000000000002,66.8
2.269,66.6
2.27,66.6
2.271,66.6
2.2720000000000002,66.6
2.273,66.4
2.274,66.4
2.275,66.4
2.2760000000000002,66.4
2.277,66.4
2.278,66.4
2.279,66.2
2.2800000000000002,66.0
2.281,66.2
2.282,66.0
2.283,66.2
2.2840000000000003,66.2
2.285,66.0
2.286,65.8
2.287,65.8
2.2880000000000003,66.0
2.289,65.8
2.29,65.6
2.291,65.8
2.2920000000000003,65.6
2.293,65.6
2.294,65.4
2.295,65.8
2.2960000000000003,65.2
2.297,65.8
2.298,65.6
2.299,65.2
2.3000000000000003,65.4
2.301,65.2
2.302,65.4
2.303,65.2
2.3040000000000003,65.2
2.305,65.4
2.306,65.0
2.307,65.2
2.308,65.2
2.309,65.0
2.31,64.8
2.311,65.0
2.312,65.0
2.313,64.8
2.314,64.6
2.315,64.8
2.316,64.8
2.317,64.8
2.318,64.8
2.319,64.6
2.32,64.6
2.321,64.8
2.322,64.6
2.323,64.6
2.324,64.6
2.325,64.6
2.326,64.6
2.327,64.4
2.328,64.6
2.329,64.2
2.33,64.4
2.331,64.6
2.332,64.2
2.333,64.4
2.334,64.4
2.335,64.6
2.336,64.4
2.337,64.2
2.338,64.2
2.339,64.0
2.34,64.2
2.341,64.4
2.342,64.2
2.343,64.2
2.344,64.0
2.345,64.4
2.346,64.2
2.347,64.2
2.348,64.2
2.349,64.0
2.35,64.0
2.351,63.8
2.352,63.8
2.353,63.8
2.354,64.2
2.355,63.8
2.356,64.2
2.357,64.0
2.358,64.0
2.359,64.0
2.36,64.2
2.361,64.0
2.362,64.0
2.363,63.8
2.364,63.8
2.365,63.8
2.366,64.0
2.367,64.0
2.368,63.8
2.369,63.8
2.37,63.8
2.371,63.6
2.372,63.8
2.373,64.0
2.374,63.8
2.375,63.8
2.376,63.8
2.3770000000000002,63.8
2.378,63.8
2.379,63.8
2.38,64.0
2.3810000000000002,63.6
2.382,63.8
2.383,63.6
2.384,64.0
2.3850000000000002,63.6
2.386,63.8
2.387,63.8
2.388,63.8
2.3890000000000002,63.6
2.39,63.8
2.391,63.6
2.392,63.8
2.3930000000000002,64.0
2.394,64.0
2.395,64.0
2.396,64.2
2.3970000000000002,63.8
2.398,63.8
2.399,63.6
2.4,64.0
2.4010000000000002,63.8
2.402,64.0
2.403,64.2
2.404,64.0
2.4050000000000002,64.0
2.406,64.2
2.407,64.2
2.408,64.2
2.4090000000000003,64.2
2.41,64.0
2.411,64.0
2.412,64.2
2.4130000000000003,64.0
2.414,64.2
2.415,64.2
2.416,64.0
2.4170000000000003,64.0
2.418,64.2
2.419,64.2
2.42,64.2
2.4210000000000003,64.0
2.422,64.2
2.423,64.2
2.424,64.2
2.4250000000000003,64.2
2.426,64.2
2.427,64.0
2.428,64.2
2.4290000000000003,64.4
2.43,64.4
2.431,64.2
2.432,64.2
2.433,64.2
2.434,64.4
2.435,64.2
2.436,64.2
2.437,64.4
2.438,64.2
2.439,64.2
2.44,64.4
2.441,64.6
2.442,64.4
2.443,64.4
2.444,64.6
2.445,64.6
2.446,64.6
2.447,64.6
2.448,64.4
2.449,64.8
2.45,64.6
2.451,64.4
2.452,64.8
2.453,64.8
2.454,64.8
2.455,64.8
2.456,64.6
2.457,64.6
2.458,65.0
2.459,65.0
2.46,65.0
2.461,65.0
2.462,65.0
2.463,65.0
2.464,65.0
2.465,65.2
2.466,65.0
2.467,64.8
2.468,65.0
2.469,65.0
2.47,65.0
2.471,64.8
2.472,65.2
2.473,65.2
2.474,65.4
2.475,65.4
2.476,65.4
2.477,65.4
2.478,65.2
2.479,65.4
2.48,65.4
2.481,65.6
2.482,65.4
2.483,65.6
2.484,65.6
2.485,65.6
2.486,65.8
2.487,65.8
2.488,65.8
2.489,65.8
2.49,65.8
2.491,65.8
2.492,65.8
2.493,65.8
2.494,66.0
2.495,66.0
2.496,66.2
2.497,66.0
2.498,66.0
2.499,66.0
2.5,66.4
2.501,66.2
2.5020000000000002,66.4
2.503,66.4
2.504,66.2
2.505,66.4
2.5060000000000002,66.4
2.507,66.4
2.508,66.4
2.509,66.4
2.5100000000000002,66.6
2.511,66.4
2.512,66.6
2.513,66.4
2.5140000000000002,66.6
2.515,66.8
2.516,66.8
2.517,67.0
2.5180000000000002,66.8
2.519,67.0
2.52,67.0
2.521,67.2
2.5220000000000002,67.0
2.523,67.2
2.524,67.4
2.525,67.2
2.5260000000000002,67.2
2.527,67.2
2.528,67.4
2.529,67.6
2.5300000000000002,67.4
2.531,67.6
2.532,67.4
2.533,67.6
2.5340000000000003,67.8
2.535,67.8
2.536,67.8
2.537,67.8
2.5380000000000003,67.6
2.539,68.0
2.54,67.8
2.541,67.8
2.5420000000000003,68.0
2.543,68.2
2.544,68.2
2.545,68.0
2.5460000000000003,68.2
2.547,68.2
2.548,68.4
2.549,68.4
2.5500000000000003,68.4
2.551,68.4
2.552,68.4
2.553,68.4
2.5540000000000003,68.4
2.555,68.4
2.556,68.8
2.557,68.6
2.5580000000000003,68.8
2.559,68.8
2.56,68.8
2.561,69.0
2.562,69.0
2.563,69.2
2.564,69.0
2.565,69.0
2.566,69.0
2.567,69.0
2.568,69.2
2.569,69.2
2.57,69.2
2.571,69.4
2.572,69.4
2.573,69.6
2.574,69.6
2.575,69.8
2.576,69.6
2.577,69.6
2.578,70.0
2.579,69.6
2.58,69.8
2.581,70.0
2.582,69.8
2.583,69.8
2.584,69.8
2.585,70.0
2.586,70.2
2.587,70.0
2.588,70.4
2.589,70.2
2.59,70.2
2.591,70.4
2.592,70.4
2.593,70.4
2.594,70.6
2.595,70.4
2.596,70.4
2.597,70.4
2.598,70.4
2.599,70.8
2.6,70.6
2.601,70.8
2.602,70.8
2.603,70.6
2.604,71.0
2.605,71.0
2.606,71.0
2.607,71.0
2.608,70.8
2.609,71.0
2.61,71.0
2.611,70.8
2.612,71.2
2.613,71.2
2.614,71.2
2.615,71.2
2.616,71.4
2.617,71.2
2.618,71.2
2.619,71.2
2.62,71.4
2.621,71.6
2.622,71.6
2.623,71.4
2.624,71.6
2.625,71.4
2.626,71.6
2.6270000000000002,71.8
2.628,71.6
2.629,71.8
2.63,71.8
2.6310000000000002,72.0
2.632,72.0
2.633,72.0
2.634,71.8
2.6350000000000002,71.8
2.636,71.8
2.637,71.8
2.638,72.0
2.6390000000000002,72.2
2.64,72.0
2.641,71.8
2.642,72.0
2.6430000000000002,72.0
2.644,72.2
2.645,72.2
2.646,72.0
2.6470000000000002,72.2
2.648,72.0
2.649,72.2
2.65,72.2
2.6510000000000002,72.4
2.652,72.4
2.653,72.4
2.654,72.4
2.6550000000000002,72.4
2.656,72.2
2.657,72.4
2.658,72.4
2.6590000000000003,72.4
2.66,72.4
2.661,72.6
2.662,72.6
2.6630000000000003,72.6
2.664,72.6
2.665,72.6
2.666,72.8
2.6670000000000003,72.6
2.668,72.6
2.669,72.4
2.67,72.8
2.6710000000000003,72.8
2.672,72.6
2.673,72.8
2.674,72.8
2.6750000000000003,72.8
2.676,72.4
2.677,72.8
2.678,72.8
2.6790000000000003,72.8
2.68,72.8
2.681,73.0
2.682,72.6
2.6830000000000003,72.8
2.684,73.0
2.685,72.8
2.686,72.8
2.6870000000000003,72.8
2.688,72.8
2.689,72.8
2.69,73.0
2.691,73.0
2.692,72.8
2.693,72.8
2.694,73.0
2.695,72.8
2.696,72.8
2.697,72.8
2.698,73.0
2.699,72.6
2.7,73.2
2.701,73.0
2.702,72.8
2.703,72.8
2.704,72.8
2.705,73.0
2.706,72.8
2.707,72.8
2.708,72.8
2.709,72.8
2.71,72.4
2.711,72.8
2.712,72.6
2.713,72.8
2.714,72.8
2.715,72.8
2.716,73.0
2.717,72.8
2.718,72.8
2.719,72.8
2.72,72.8
2.721,72.8
2.722,72.8
2.723,72.6
2.724,72.4
2.725,72.4
2.726,72.6
2.727,72.6
2.728,72.4
2.729,72.4
2.73,72.6
2.731,72.4
2.732,72.6
2.733,72.4
2.734,72.4
2.735,72.4
2.736,72.2
2.737,72.6
2.738,72.4
2.739,72.4
2.74,72.4
2.741,72.4
2.742,72.2
2.743,72.4
2.744,72.4
2.745,72.0
2.746,72.4
2.747,72.0
2.748,72.2
2.749,72.0
2.75,72.2
2.751,72.2
2.7520000000000002,72.2
2.753,72.0
2.754,72.0
2.755,71.8
2.7560000000000002,72.0
2.757,72.0
2.758,72.0
2.759,71.8
2.7600000000000002,71.8
2.761,72.0
2.762,72.0
2.763,71.8
2.7640000000000002,71.8
2.765,72.0
2.766,71.8
2.767,71.6
2.7680000000000002,71.6
2.769,71.6
2.77,71.6
2.771,71.6
2.7720000000000002,71.6
2.773,71.4
2.774,71.6
2.775,71.2
2.7760000000000002,71.4
2.777,71.4
2.778,71.2
2.779,71.4
2.7800000000000002,71.0
2.781,71.0
2.782,71.2
2.783,71.4
2.7840000000000003,71.0
2.785,71.0
2.786,71.2
2.787,70.8
2.7880000000000003,71.0
2.789,71.0
2.79,70.8
2.791,70.8
2.7920000000000003,71.0
2.793,71.0
2.794,70.6
2.795,70.6
2.7960000000000003,70.4
2.797,70.8
2.798,70.4
2.799,70.6
2.8000000000000003,70.6
2.801,70.6
2.802,70.4
2.803,70.6
2.8040000000000003,70.4
2.805,70.4
2.806,70.4
2.807,70.4
2.8080000000000003,70.2
2.809,70.2
2.81,70.2
2.811,70.0
2.8120000000000003,70.0
2.813,70.0
2.814,70.0
2.815,70.0
2.816,70.0
2.817,69.8
2.818,69.8
2.819,69.8
2.82,69.8
2.821,69.8
2.822,69.6
2.823,69.2
2.824,69.4
2.825,69.2
2.826,69.2
2.827,69.2
2.828,69.4
2.829,69.2
2.83,69.0
2.831,69.0
2.832,69.0
2.833,69.0
2.834,69.0
2.835,68.8
2.836,68.8
2.837,68.6
2.838,68.8
2.839,68.6
2.84,68.6
2.841,68.6
2.842,68.4
2.843,68.4
2.844,68.4
2.845,68.4
2.846,68.4
2.847,68.2
2.848,68.2
2.849,68.4
2.85,68.2
2.851,68.2
2.852,67.8
2.853,68.0
2.854,68.0
2.855,68.0
2.856,68.0
2.857,67.8
2.858,67.8
2.859,67.8
2.86,67.8
2.861,67.6
2.862,67.6
2.863,67.6
2.864,67.4
2.865,67.2
2.866,67.4
2.867,67.2
2.868,67.6
2.869,67.2
2.87,67.2
2.871,67.2
2.872,67.2
2.873,67.4
2.874,66.8
2.875,67.0
2.876,67.0
2.8770000000000002,66.8
2.878,67.0
2.879,66.8
2.88,66.8
2.8810000000000002,66.8
2.882,66.6
2.883,66.6
2.884,66.6
2.8850000000000002,66.6
2.886,66.4
2.887,66.2
2.888,66.4
2.8890000000000002,66.4
2.89,66.2
2.891,66.4
2.892,66.2
2.8930000000000002,66.0
2.894,66.0
2.895,66.0
2.896,66.0
2.8970000000000002,65.8
2.898,66.0
2.899,65.8
2.9,65.6
2.9010000000000002,65.8
2.902,66.0
2.903,65.8
2.904,65.8
2.9050000000000002,65.8
2.906,65.8
2.907,65.8
2.908,65.4
2.9090000000000003,65.4
2.91,65.4
2.911,65.6
2.912,65.4
2.9130000000000003,65.4
2.914,65.4
2.915,65.4
2.916,65.2
2.9170000000000003,65.2
2.918,65.2
2.919,65.4
2.92,65.2
2.9210000000000003,65.2
2.922,64.8
2.923,65.0
2.924,65.0
2.9250000000000003,65.0
2.926,64.8
2.927,64.8
2.928,65.0
2.9290000000000003,65.0
2.93,64.8
2.931,64.6
2.932,64.6
2.9330000000000003,64.6
2.934,64.6
2.935,64.6
2.936,64.6
2.9370000000000003,64.8
2.938,64.4
2.939,64.6
2.94,64.6
2.9410000000000003,64.6
2.942,64.6
2.943,64.4
2.944,64.4
2.945,64.4
2.946,64.4
2.947,64.2
2.948,64.4
2.949,64.4
2.95,64.2
2.951,64.2
2.952,64.2
2.953,64.2
2.954,64.2
2.955,64.2
2.956,64.2
2.957,64.0
2.958,64.0
2.959,64.0
2.96,64.2
2.961,64.0
2.962,64.0
2.963,64.2
2.964,64.0
2.965,64.0
2.966,63.8
2.967,64.0
2.968,64.2
2.969,64.2
2.97,64.0
2.971,63.8
2.972,64.0
2.973,63.8
2.974,64.2
2.975,63.8
2.976,64.0
2.977,63.8
2.978,64.0
2.979,63.8
2.98,63.8
2.981,63.8
2.982,63.8
2.983,63.8
2.984,64.0
2.985,63.8
2.986,63.8
2.987,64.0
2.988,64.0
2.989,63.8
2.99,63.8
2.991,63.8
2.992,63.6
2.993,63.8
2.994,63.8
2.995,63.8
2.996,63.8
2.997,64.0
2.998,63.8
2.999,63.8
3.0,63.8
3.001,63.8
3.0020000000000002,63.8
3.003,63.8
3.004,63.8
3.005,64.0
3.0060000000000002,64.0
3.007,63.8
3.008,64.2
3.009,64.0
3.0100000000000002,64.0
3.011,63.8
3.012,64.2
3.013,64.0
3.0140000000000002,64.2
3.015,63.6
3.016,64.0
3.017,64.0
3.0180000000000002,64.2
3.019,64.0
3.02,64.0
3.021,63.6
3.0220000000000002,63.8
3.023,64.0
3.024,64.2
3.025,64.0
3.0260000000000002,64.0
3.027,64.0
3.028,64.0
3.029,64.0
3.0300000000000002,64.0
3.031,64.0
3.032,64.0
3.033,64.0
3.0340000000000003,64.2
3.035,64.2
3.036,64.2
3.037,64.0
3.0380000000000003,64.2
3.039,64.2
3.04,64.4
3.041,64.4
3.0420000000000003,64.2
3.043,64.4
3.044,64.2
3.045,64.0
3.0460000000000003,64.4
3.047,64.4
3.048,64.4
3.049,64.4
3.0500000000000003,64.4
3.051,64.2
3.052,64.4
3.053,64.4
3.0540000000000003,64.4
3.055,64.4
3.056,64.2
3.057,64.6
3.0580000000000003,64.6
3.059,64.6
3.06,64.6
3.061,64.6
3.0620000000000003,64.6
3.063,64.6
3.064,64.6
3.065,64.6
3.0660000000000003,64.8
3.067,64.8
3.068,65.0
3.069,64.8
3.0700000000000003,65.0
3.071,64.8
3.072,65.0
3.073,65.0
3.074,64.8
3.075,65.2
3.076,64.8
3.077,65.0
3.078,65.0
3.079,65.0
3.08,65.2
3.081,65.0
3.082,65.0
3.083,65.0
3.084,65.0
3.085,65.0
3.086,65.2
3.087,65.2
3.088,65.2
3.089,65.6
3.09,65.4
3.091,65.2
3.092,65.2
3.093,65.2
3.094,65.4
3.095,65.4
3.096,65.6
3.097,65.6
3.098,65.6
3.099,65.8
3.1,65.8
3.101,65.8
3.102,65.8
3.103,65.8
3.104,65.8
3.105,66.2
3.106,65.8
3.107,66.0
3.108,65.8
3.109,66.0
3.11,66.0
3.111,66.2
3.112,66.2
3.113,66.4
3.114,66.0
3.115,66.4
3.116,66.4
3.117,66.4
3.118,66.4
3.119,66.2
3.12,66.4
3.121,66.4
3.122,66.4
3.123,66.6
3.124,66.6
3.125,66.8
3.126,66.8
3.1270000000000002,66.8
3.128,66.8
3.129,66.8
3.13,66.8
3.1310000000000002,67.0
3.132,66.8
3.133,67.0
3.134,67.0
3.1350000000000002,67.0
3.136,67.0
3.137,67.2
3.138,67.2
3.1390000000000002,67.4
3.14,67.4
3.141,67.2
3.142,67.4
3.1430000000000002,67.4
3.144,67.4
3.145,67.4
3.146,67.6
3.1470000000000002,67.4
3.148,67.6
3.149,67.6
3.15,67.6
3.1510000000000002,67.8
3.152,68.0
3.153,67.8
3.154,67.8
3.1550000000000002,68.0
3.156,68.0
3.157,68.0
3.158,68.2
3.1590000000000003,68.2
3.16,68.0
3.161,68.4
3.162,68.2
3.1630000000000003,68.4
3.164,68.4
3.165,68.4
3.166,68.4
3.1670000000000003,68.6
3.168,68.6
3.169,68.6
3.17,68.6
3.1710000000000003,68.8
3.172,68.8
3.173,68.6
3.174,68.8
3.1750000000000003,68.8
3.176,69.0
3.177,69.0
3.178,69.2
3.1790000000000003,69.2
3.18,69.2
3.181,69.2
3.182,69.2
3.1830000000000003,69.0
3.184,69.4
3.185,69.4
3.186,69.6
3.1870000000000003,69.6
3.188,69.8
3.189,69.6
3.19,69.6
3.1910000000000003,69.8
3.192,69.6
3.193,69.8
3.194,69.8
3.1950000000000003,70.0
3.196,70.0
3.197,70.0
3.198,70.0
3.1990000000000003,70.0
3.2,70.0
3.201,70.0
3.202,70.2
3.203,70.4
3.204,70.4
3.205,70.2
3.206,70.4
3.207,70.4
3.208,70.4
3.209,70.6
3.21,70.6
3.211,70.6
3.212,70.6
3.213,70.6
3.214,70.8
3.215,71.0
3.216,70.8
3.217,70.8
3.218,70.8
3.219,70.8
3.22,70.8
3.221,71.0
3.222,71.0
3.223,71.0
3.224,71.0
3.225,71.2
3.226,71.2
3.227,71.2
3.228,71.0
3.229,71.0
3.23,71.2
3.231,71.2
3.232,71.4
3.233,71.4
3.234,71.4
3.235,71.4
3.236,71.4
3.237,71.6
3.238,71.6
3.239,71.6
3.24,71.6
3.241,71.8
3.242,71.6
3.243,71.6
3.244,71.8
3.245,72.0
3.246,72.0
3.247,72.0
3.248,71.8
3.249,71.8
3.25,72.0
3.251,72.0
3.2520000000000002,72.2
3.253,72.0
3.254,72.0
3.255,72.2
3.2560000000000002,72.0
3.257,72.0
3.258,72.0
3.259,72.0
3.2600000000000002,72.2
3.261,72.2
3.262,72.4
3.263,72.2
3.2640000000000002,72.4
3.265,72.4
3.266,72.4
3.267,72.4
3.2680000000000002,72.4
3.269,72.4
3.27,72.4
3.271,72.6
3.2720000000000002,72.4
3.273,72.6
3.274,72.4
3.275,72.6
3.2760000000000002,72.4
3.277,72.4
3.278,72.8
3.279,72.4
3.2800000000000002,72.4
3.281,72.6
3.282,72.4
3.283,72.6
3.2840000000000003,72.8
3.285,72.8
3.286,72.6
3.287,72.8
3.2880000000000003,72.8
3.289,72.4
3.29,73.0
3.291,72.6
3.2920000000000003,72.8
3.293,72.8
3.294,72.8
3.295,72.8
3.2960000000000003,72.6
3.297,72.8
3.298,72.8
3.299,72.8
3.3000000000000003,72.8
3.301,72.8
3.302,72.8
3.303,72.8
3.3040000000000003,72.8
3.305,73.0
3.306,73.0
3.307,72.8
3.3080000000000003,72.8
3.309,73.0
3.31,72.8
3.311,73.0
3.3120000000000003,72.8
3.313,72.8
3.314,72.8
3.315,73.0
3.3160000000000003,72.8
3.317,72.8
3.318,72.6
3.319,72.6
3.3200000000000003,72.8
3.321,72.8
3.322,72.6
3.323,72.8
3.3240000000000003,72.8
3.325,72.8
3.326,72.8
3.327,72.6
3.3280000000000003,72.6
3.329,72.8
3.33,72.8
3.331,72.8
3.332,72.8
3.333,72.6
3.334,72.6
3.335,72.8
3.336,72.6
3.337,72.8
3.338,72.6
3.339,72.4
3.34,72.6
3.341,72.6
3.342,72.6
3.343,72.4
3.344,72.6
3.345,72.4
3.346,72.6
3.347,72.4
3.348,72.4
3.349,72.2
3.35,72.6
3.351,72.6
3.352,72.6
3.353,72.2
3.354,72.2
3.355,72.4
3.356,72.2
3.357,72.4
3.358,72.2
3.359,72.4
3.36,72.2
3.361,72.2
3.362,72.0
3.363,72.2
3.364,72.2
3.365,72.0
3.366,72.4
3.367,72.2
3.368,72.0
3.369,71.8
3.37,72.2
3.371,71.8
3.372,72.0
3.373,72.0
3.374,72.0
3.375,71.8
3.376,71.8
3.3770000000000002,72.0
3.378,71.8
3.379,71.6
3.38,72.0
3.3810000000000002,71.8
3.382,71.6
3.383,71.8
3.384,71.6
3.3850000000000002,71.6
3.386,71.8
3.387,71.4
3.388,71.2
3.3890000000000002,71.2
3.39,71.2
3.391,71.4
3.392,71.4
3.3930000000000002,71.2
3.394,71.2
3.395,71.4
3.396,71.2
3.3970000000000002,71.2
3.398,71.0
3.399,71.2
3.4,71.2
3.4010000000000002,71.2
3.402,71.0
3.403,70.8
3.404,71.0
3.4050000000000002,70.8
3.406,71.0
3.407,70.8
3.408,71.0
3.4090000000000003,70.8
3.41,70.8
3.411,70.6
3.412,70.6
3.4130000000000003,70.6
3.414,70.4
3.415,70.4
3.416,70.4
3.4170000000000003,70.2
3.418,70.2
3.419,70.4
3.42,70.4
3.4210000000000003,70.0
3.422,70.0
3.423,70.2
3.424,70.2
3.4250000000000003,69.8
3.426,70.0
3.427,70.0
3.428,69.8
3.4290000000000003,70.0
3.43,69.8
3.431,70.0
3.432,69.6
3.4330000000000003,69.6
3.434,69.6
3.435,69.8
3.436,69.4
3.4370000000000003,69.4
3.438,69.4
3.439,69.4
3.44,69.2
3.4410000000000003,69.0
3.442,69.2
3.443,69.2
3.444,69.2
3.4450000000000003,69.2
3.446,69.0
3.447,69.0
3.448,69.0
3.4490000000000003,68.8
3.45,68.8
3.451,68.6
3.452,68.8
3.4530000000000003,68.6
3.454,68.8
3.455,68.6
3.456,68.4
3.457,68.4
3.458,68.6
3.459,68.2
3.46,68.4
3.461,68.2
3.462,68.2
3.463,68.2
3.464,68.2
3.465,68.2
3.466,68.0
3.467,68.0
3.468,67.8
3.469,68.0
3.47,68.0
3.471,67.8
3.472,67.8
3.473,67.6
3.474,67.6
3.475,67.6
3.476,67.6
3.477,67.4
3.478,67.4
3.479,67.4
3.48,67.4
3.481,67.4
3.482,67.2
3.483,67.2
3.484,67.2
3.485,67.2
3.486,67.0
3.487,67.2
3.488,67.2
3.489,67.0
3.49,66.8
3.491,66.8
3.492,66.8
3.493,66.8
3.494,66.6
3.495,66.6
3.496,66.6
3.497,66.6
3.498,66.4
3.499,66.4
3.5,66.6
3.501,66.4
3.5020000000000002,66.2
3.503,66.4
3.504,66.4
3.505,66.2
3.5060000000000002,66.0
3.507,66.2
3.508,66.2
3.509,66.2
3.5100000000000002,66.0
3.511,66.0
3.512,66.0
3.513,65.8
3.5140000000000002,65.8
3.515,65.8
3.516,65.6
3.517,65.6
3.5180000000000002,65.8
3.519,65.8
3.52,65.6
3.521,65.6
3.5220000000000002,65.6
3.523,65.8
3.524,65.6
3.525,65.2
3.5260000000000002,65.4
3.527,65.2
3.528,65.2
3.529,65.4
3.5300000000000002,65.2
3.531,65.2
3.532,65.0
3.533,65.2
3.5340000000000003,65.0
3.535,65.2
3.536,65.0
3.537,64.8
3.5380000000000003,64.8
3.539,64.8
3.54,64.8
3.541,64.8
3.5420000000000003,64.8
3.543,64.8
3.544,64.8
3.545,64.6
3.5460000000000003,64.6
3.547,64.6
3.548,64.8
3.549,64.8
3.5500000000000003,64.6
3.551,64.6
3.552,64.6
3.553,64.4
3.5540000000000003,64.4
3.555,64.4
3.556,64.2
3.557,64.4
3.5580000000000003,64.4
3.559,64.2
3.56,64.2
3.561,64.4
3.5620000000000003,64.4
3.563,64.2
3.564,64.4
3.565,64.2
3.5660000000000003,64.2
3.567,64.0
3.568,64.4
3.569,64.0
3.5700000000000003,64.2
3.571,64.2
3.572,64.2
3.573,64.0
3.5740000000000003,64.2
3.575,64.2
3.576,64.0
3.577,64.0
3.5780000000000003,64.2
3.579,64.0
3.58,63.8
3.581,64.2
3.5820000000000003,64.0
3.583,64.0
3.584,63.8
3.585,64.0
3.586,64.0
3.587,63.8
3.588,64.0
3.589,64.0
3.59,63.8
3.591,64.0
3.592,64.0
3.593,64.0
3.594,64.0
3.595,63.8
3.596,63.6
3.597,63.8
3.598,64.0
3.599,63.8
3.6,63.8
3.601,63.8
3.602,63.8
3.603,63.8
3.604,63.8
3.605,63.8
3.606,63.8
3.607,64.0
3.608,63.8
3.609,63.6
3.61,63.8
3.611,63.8
3.612,63.8
3.613,64.0
3.614,63.8
3.615,63.8
3.616,63.8
3.617,63.8
3.618,63.8
3.619,63.6
3.62,63.8
3.621,64.0
3.622,64.0
3.623,64.0
3.624,63.6
3.625,64.0
3.626,63.6
3.6270000000000002,63.8
3.628,64.2
3.629,64.0
3.63,64.2
3.6310000000000002,64.0
3.632,64.0
3.633,64.0
3.634,64.0
3.6350000000000002,64.0
3.636,63.8
3.637,64.0
3.638,64.0
3.6390000000000002,64.0
3.64,64.0
3.641,64.2
3.642,64.0
3.6430000000000002,64.2
3.644,64.0
3.645,64.0
3.646,64.0
3.6470000000000002,64.2
3.648,64.2
3.649,64.2
3.65,64.2
3.6510000000000002,64.2
3.652,64.0
3.653,64.4
3.654,64.2
3.6550000000000002,64.2
3.656,64.2
3.657,64.2
3.658,64.2
3.6590000000000003,64.2
3.66,64.4
3.661,64.4
3.662,64.4
3.6630000000000003,64.4
3.664,64.4
3.665,64.2
3.666,64.2
3.6670000000000003,64.6
3.668,64.4
3.669,64.6
3.67,64.4
3.6710000000000003,64.6
3.672,64.4
3.673,64.4
3.674,64.8
3.6750000000000003,64.6
3.676,64.6
3.677,64.8
3.678,64.6
3.6790000000000003,64.6
3.68,64.8
3.681,64.8
3.682,64.8
3.6830000000000003,65.0
3.684,65.0
3.685,64.8
3.686,64.8
3.6870000000000003,64.8
3.688,65.0
3.689,65.0
3.69,65.2
3.6910000000000003,65.2
3.692,64.8
3.693,65.0
3.694,65.0
3.6950000000000003,65.2
3.696,65.0
3.697,65.2
3.698,65.2
3.6990000000000003,65.4
3.7,65.0
3.701,65.4
3.702,65.2
3.7030000000000003,65.4
3.704,65.2
3.705,65.6
3.706,65.4
3.7070000000000003,65.4
3.708,65.6
3.709,65.6
3.71,65.6
3.7110000000000003,65.8
3.712,65.8
3.713,65.8
3.714,65.6
3.715,65.6
3.716,65.8
3.717,65.6
3.718,65.8
3.719,65.8
3.72,65.8
3.721,66.0
3.722,66.0
3.723,65.8
3.724,66.0
3.725,66.2
3.726,66.2
3.727,66.2
3.728,66.2
3.729,66.4
3.73,66.4
3.731,66.4
3.732,66.4
3.733,66.4
3.734,66.4
3.735,66.6
3.736,66.4
3.737,66.6
3.738,66.4
3.739,66.6
3.74,66.8
3.741,66.8
3.742,66.8
3.743,66.8
3.744,66.8
3.745,67.0
3.746,66.8
3.747,66.8
3.748,67.0
3.749,67.2
3.75,67.0
3.751,67.2
3.7520000000000002,67.0
3.753,67.2
3.754,67.2
3.755,67.2
3.7560000000000002,67.2
3.757,67.6
3.758,67.4
3.759,67.6
3.7600000000000002,67.6
3.761,67.6
3.762,67.6
3.763,67.8
3.7640000000000002,67.8
3.765,67.8
3.766,67.8
3.767,68.0
3.7680000000000002,68.0
3.769,67.8
3.77,68.0
3.771,68.2
3.7720000000000002,68.4
3.773,68.2
3.774,68.2
3.775,68.2
3.7760000000000002,68.2
3.777,68.2
3.778,68.4
3.779,68.6
3.7800000000000002,68.6
3.781,68.4
3.782,68.8
3.783,68.6
3.7840000000000003,68.8
3.785,68.6
3.786,68.6
3.787,68.8
3.7880000000000003,68.8
3.789,68.8
3.79,69.0
3.791,69.0
3.7920000000000003,69.0
3.793,69.2
3.794,69.0
3.795,69.2
3.7960000000000003,69.2
3.797,69.2
3.798,69.4
3.799,69.2
3.8000000000000003,69.6
3.801,69.4
3.802,69.6
3.803,69.6
3.8040000000000003,69.6
3.805,69.8
3.806,69.8
3.807,69.6
3.8080000000000003,69.8
3.809,70.2
3.81,70.0
3.811,70.0
3.8120000000000003,69.8
3.813,70.0
3.814,70.2
3.815,70.2
3.8160000000000003,70.4
3.817,70.2
3.818,70.2
3.819,70.4
3.8200000000000003,70.4
3.821,70.4
3.822,70.4
3.823,70.6
3.8240000000000003,70.4
3.825,70.4
3.826,70.8
3.827,70.8
3.8280000000000003,70.8
3.829,70.6
3.83,71.0
3.831,70.8
3.8320000000000003,71.0
3.833,71.0
3.834,70.8
3.835,71.2
3.8360000000000003,70.8
3.837,70.8
3.838,71.0
3.839,71.2
3.84,71.0
3.841,71.2
3.842,71.0
3.843,71.2
3.844,71.2
3.845,71.4
3.846,71.6
3.847,71.4
3.848,71.4
3.849,71.4
3.85,71.6
3.851,71.4
3.852,71.6
3.853,71.6
3.854,71.6
3.855,71.6
3.856,71.8
3.857,71.8
3.858,71.8
3.859,72.0
3.86,72.0
3.861,72.0
3.862,72.0
3.863,72.0
3.864,71.8
3.865,72.0
3.866,72.0
3.867,72.2
3.868,72.0
3.869,72.0
3.87,72.0
3.871,72.0
3.872,72.2
3.873,72.2
3.874,72.0
3.875,72.2
3.876,72.2
3.8770000000000002,72.2
3.878,72.2
3.879,72.2
3.88,72.2
3.8810000000000002,72.4
3.882,72.4
3.883,72.2
3.884,72.4
3.8850000000000002,72.6
3.886,72.6
3.887,72.4
3.888,72.6
3.8890000000000002,72.6
3.89,72.4
3.891,72.6
3.892,72.6
3.8930000000000002,72.8
3.894,72.6
3.895,72.4
3.896,72.6
3.8970000000000002,72.8
3.898,72.6
3.899,72.6
3.9,72.6
3.9010000000000002,72.6
3.902,72.6
3.903,72.8
3.904,72.8
3.9050000000000002,72.8
3.906,72.8
3.907,72.8
3.908,72.8
3.9090000000000003,73.0
3.91,72.8
3.911,72.8
3.912,72.6
3.9130000000000003,72.8
3.914,72.8
3.915,72.8
3.916,72.8
3.9170000000000003,73.0
3.918,72.8
3.919,73.0
3.92,73.0
3.9210000000000003,72.6
3.922,72.8
3.923,72.8
3.924,72.8
3.9250000000000003,73.0
3.926,73.0
3.927,73.0
3.928,73.0
3.9290000000000003,73.0
3.93,73.0
3.931,73.0
3.932,73.0
3.9330000000000003,72.6
3.934,72.8
3.935,72.8
3.936,72.6
3.9370000000000003,72.8
3.938,72.8
3.939,72.8
3.94,72.8
3.9410000000000003,72.4
3.942,72.6
3.943,72.6
3.944,72.8
3.9450000000000003,72.6
3.946,72.8
3.947,72.6
3.948,72.6
3.9490000000000003,72.6
3.95,72.8
3.951,72.6
3.952,72.4
3.9530000000000003,72.6
3.954,72.4
3.955,72.4
3.956,72.6
3.9570000000000003,72.6
3.958,72.6
3.959,72.6
3.96,72.6
3.9610000000000003,72.6
3.962,72.4
3.963,72.4
3.964,72.4
3.9650000000000003,72.2
3.966,72.4
3.967,72.4
3.968,72.4
3.969,72.2
3.97,72.2
3.971,72.4
3.972,72.2
3.973,72.0
3.974,72.2
3.975,72.0
3.976,72.0
3.977,72.2
3.978,72.2
3.979,72.0
3.98,72.2
3.981,72.0
3.982,72.0
3.983,72.0
3.984,71.8
3.985,72.0
3.986,71.8
3.987,72.0
3.988,72.0
3.989,71.8
3.99,72.0
3.991,72.0
3.992,71.6
3.993,71.8
3.994,71.8
3.995,71.8
3.996,71.4
3.997,71.4
3.998,71.6
3.999,71.4
4.0,71.6
4.001,71.2
4.002,71.4
4.003,71.4
4.0040000000000004,71.4
4.005,71.2
4.006,71.4
4.007,71.2
4.008,71.4
4.009,71.2
4.01,71.0
4.011,71.0
4.0120000000000005,70.8
4.013,71.2
4.014,71.2
4.015,70.8
4.016,71.0
4.017,71.0
4.018,70.8
4.019,71.0
4.0200000000000005,70.6
4.021,70.6
4.022,70.8
4.023,70.6
4.024,70.6
4.025,70.6
4.026,70.4
4.027,70.4
4.0280000000000005,70.4
4.029,70.4
4.03,70.6
4.031,70.4
4.032,70.0
4.033,70.4
4.034,70.2
4.035,70.2
4.0360000000000005,70.0
4.037,70.2
4.038,70.0
4.039,70.2
4.04,69.8
4.041,69.8
4.042,69.6
4.043,70.0
4.0440000000000005,69.8
4.045,69.8
4.046,69.6
4.047,69.6
4.048,69.6
4.049,69.4
4.05,69.4
4.051,69.4
4.0520000000000005,69.4
4.053,69.2
4.054,69.2
4.055,69.2
4.056,69.2
4.057,69.2
4.058,69.0
4.059,69.0
4.0600000000000005,68.8
4.061,69.0
4.062,68.8
4.063,68.8
4.064,69.0
4.065,68.8
4.066,68.6
4.067,68.6
4.0680000000000005,68.6
4.069,68.4
4.07,68.6
4.071,68.4
4.072,68.4
4.073,68.4
4.074,68.2
4.075,68.4
4.0760000000000005,68.0
4.077,68.2
4.078,68.0
4.079,68.0
4.08,68.0
4.081,68.0
4.082,67.8
4.083,68.0
4.0840000000000005,68.0
4.085,67.8
4.086,67.6
4.087,67.8
4.088,67.6
4.089,67.8
4.09,67.4
4.091,67.4
4.0920000000000005,67.4
4.093,67.2
4.094,67.4
4.095,67.2
4.096,67.2
4.097,67.0
4.098,67.2
4.099,67.2
4.1,67.0
4.101,67.0
4.102,67.0
4.103,67.0
4.104,66.8
4.105,66.8
4.106,66.8
4.107,66.8
4.108,66.6
4.109,66.6
4.11,66.6
4.111,66.4
4.112,66.6
4.113,66.4
4.114,66.4
4.115,66.2
4.116,66.4
4.117,66.2
4.118,66.4
4.119,66.2
4.12,66.2
4.121,66.0
4.122,66.0
4.123,66.2
4.124,66.2
4.125,66.0
4.126,65.8
4.127,65.8
4.128,65.8
4.1290000000000004,65.8
4.13,65.8
4.131,65.8
4.132,65.8
4.133,65.6
4.134,65.4
4.135,65.6
4.136,65.6
4.1370000000000005,65.4
4.138,65.4
4.139,65.4
4.14,65.2
4.141,65.2
4.142,65.4
4.143,65.2
4.144,65.2
4.1450000000000005,65.0
4.146,65.2
4.147,65.2
4.148,65.2
4.149,65.0
4.15,65.0
4.151,65.0
4.152,65.0
4.1530000000000005,64.6
4.154,64.6
4.155,64.8
4.156,64.8
4.157,64.8
4.158,64.8
4.159,64.8
4.16,64.8
4.1610000000000005,64.6
4.162,64.8
4.163,64.6
4.164,64.6
4.165,64.8
4.166,64.6
4.167,64.4
4.168,64.4
4.1690000000000005,64.4
4.17,64.2
4.171,64.4
4.172,64.6
4.173,64.2
4.174,64.2
4.175,64.4
4.176,64.4
4.1770000000000005,64.2
4.178,64.2
4.179,64.4
4.18,64.2
4.181,64.2
4.182,64.2
4.183,64.2
4.184,64.2
4.1850000000000005,64.2
4.186,64.2
4.187,63.8
4.188,64.2
4.189,64.2
4.19,64.2
4.191,64.2
4.192,64.0
4.1930000000000005,64.0
4.194,64.2
4.195,64.0
4.196,64.0
4.197,64.0
4.198,64.2
4.199,64.0
4.2,64.2
4.2010000000000005,64.0
4.202,64.0
4.203,63.8
4.204,64.0
4.205,64.0
4.206,63.8
4.207,64.0
4.208,64.0
4.2090000000000005,63.8
4.21,64.0
4.211,64.0
4.212,63.8
4.213,63.8
4.214,63.8
4.215,64.0
4.216,63.8
4.2170000000000005,64.0
4.218,63.6
4.219,63.6
4.22,63.6
4.221,63.8
4.222,63.8
4.223,64.0
4.224,63.8
4.225,63.8
4.226,63.8
4.227,63.8
4.228,64.0
4.229,64.0
4.23,63.8
4.231,64.0
4.232,64.0
4.233,63.8
4.234,63.8
4.235,64.0
4.236,63.8
4.237,64.2
4.238,63.8
4.239,63.8
4.24,63.8
4.241,63.8
4.242,64.0
4.243,64.0
4.244,63.8
4.245,63.8
4.246,64.0
4.247,64.0
4.248,63.8
4.249,64.0
4.25,64.0
4.251,64.0
4.252,64.0
4.253,64.0
4.2540000000000004,64.0
4.255,64.2
4.256,64.2
4.257,64.2
4.258,64.2
4.259,64.2
4.26,64.0
4.261,64.2
4.2620000000000005,64.2
4.263,64.2
4.264,64.2
4.265,64.2
4.266,64.0
4.267,64.2
4.268,64.2
4.269,64.2
4.2700000000000005,64.0
4.271,64.4
4.272,64.2
4.273,64.2
4.274,64.4
4.275,64.4
4.276,64.0
4.277,64.4
4.2780000000000005,64.2
4.279,64.4
4.28,64.4
4.281,64.4
4.282,64.8
4.283,64.4
4.284,64.6
4.285,64.4
4.2860000000000005,64.4
4.287,64.6
4.288,64.8
4.289,64.6
4.29,64.6
4.291,64.8
4.292,64.8
4.293,64.8
4.2940000000000005,64.6
4.295,64.8
4.296,64.8
4.297,65.0
4.298,64.8
4.299,64.8
4.3,65.0
4.301,64.8
4.3020000000000005,64.8
4.303,65.2
4.304,65.0
4.305,65.0
4.306,65.0
4.307,65.0
4.308,65.0
4.309,65.0
4.3100000000000005,65.2
4.311,65.2
4.312,65.2
4.313,65.0
4.314,65.2
4.315,65.6
4.316,65.4
4.317,65.2
4.3180000000000005,65.2
4.319,65.2
4.32,65.2
4.321,65.4
4.322,65.4
4.323,65.4
4.324,65.4
4.325,65.6
4.3260000000000005,65.8
4.327,65.8
4.328,65.8
4.329,65.6
4.33,65.8
4.331,65.8
4.332,66.0
4.333,65.8
4.3340000000000005,66.0
4.335,66.0
4.336,66.0
4.337,65.8
4.338,66.0
4.339,66.0
4.34,66.2
4.341,66.2
4.3420000000000005,66.4
4.343,66.2
4.344,66.2
4.345,66.2
4.346,66.4
4.347,66.2
4.348,66.4
4.349,66.6
4.3500000000000005,66.6
4.351,66.6
4.352,66.6
4.353,66.6
4.354,66.6
4.355,66.6
4.356,66.8
4.357,66.8
4.358,67.0
4.359,66.8
4.36,67.0
4.361,66.8
4.362,67.2
4.363,67.2
4.364,67.0
4.365,67.4
4.366,67.2
4.367,67.2
4.368,67.4
4.369,67.2
4.37,67.4
4.371,67.6
4.372,67.8
4.373,67.6
4.374,67.6
4.375,67.6
4.376,67.6
4.377,68.0
4.378,67.8
4.3790000000000004,67.8
4.38,67.8
4.381,67.8
4.382,68.0
4.383,68.0
4.384,68.2
4.385,68.0
4.386,68.2
4.3870000000000005,68.0
4.388,68.2
4.389,68.2
4.39,68.4
4.391,68.4
4.392,68.4
4.393,68.8
4.394,68.4
4.3950000000000005,68.8
4.396,68.6
4.397,68.8
4.398,68.8
4.399,68.8
4.4,69.0
4.401,68.8
4.402,69.0
4.4030000000000005,69.0
4.404,69.0
4.405,69.2
4.406,69.2
4.407,69.2
4.408,69.0
4.409,69.4
4.41,69.4
4.4110000000000005,69.2
4.412,69.4
4.413,69.6
4.414,69.6
4.415,69.6
4.416,69.4
4.417,69.8
4.418,69.8
4.4190000000000005,69.6
4.42,69.8
4.421,69.8
4.422,69.8
4.423,69.8
4.424,69.8
4.425,70.2
4.426,70.2
4.4270000000000005,70.2
4.428,70.2
4.429,70.2
4.43,70.2
4.431,70.2
4.432,70.4
4.433,70.4
4.434,70.4
4.4350000000000005,70.6
4.436,70.4
4.437,70.4
4.438,70.6
4.439,70.6
4.44,70.8
4.441,70.8
4.442,70.8
4.4430000000000005,70.8
4.444,71.0
4.445,70.8
4.446,71.0
4.447,70.8
4.448,71.0
4.449,71.0
4.45,71.0
4.4510000000000005,71.0
4.452,71.0
4.453,71.2
4.454,71.2
4.455,71.4
4.456,71.2
4.457,71.4
4.458,71.2
4.4590000000000005,71.2
4.46,71.4
4.461,71.6
4.462,71.4
4.463,71.6
4.464,71.4
4.465,71.6
4.466,71.6
4.4670000000000005,71.6
4.468,71.6
4.469,72.0
4.47,71.4
4.471,71.8
4.472,71.8
4.473,72.0
4.474,71.8
4.4750000000000005,72.0
4.476,72.0
4.477,71.8
4.478,71.8
4.479,71.8
4.48,72.0
4.481,71.8
4.482,72.0
4.483,72.0
4.484,72.2
4.485,72.2
4.486,72.0
4.487,72.2
4.488,72.2
4.489,72.2
4.49,72.4
4.491,72.2
4.492,72.0
4.493,72.4
4.494,72.4
4.495,72.6
4.496,72.4
4.497,72.4
4.498,72.6
4.499,72.4
4.5,72.4
4.501,72.4
4.502,72.6
4.503,72.6
4.5040000000000004,72.6
4.505,72.2
4.506,72.6
4.507,72.2
4.508,72.6
4.509,72.6
4.51,72.4
4.511,72.6
4.5120000000000005,72.6
4.513,72.6
4.514,72.6
4.515,72.4
4.516,72.6
4.517,72.4
4.518,72.6
4.519,72.8
4.5200000000000005,72.8
4.521,72.8
4.522,72.6
4.523,72.8
4.524,73.0
4.525,72.8
4.526,72.8
4.527,72.8
4.5280000000000005,72.8
4.529,72.8
4.53,72.8
4.531,72.8
4.532,72.8
4.533,72.8
4.534,73.0
4.535,72.6
4.5360000000000005,72.8
4.537,72.8
4.538,72.8
4.539,73.0
4.54,72.8
4.541,72.8
4.542,72.8
4.543,72.8
4.5440000000000005,72.6
4.545,72.8
4.546,72.6
4.547,72.8
4.548,72.6
4.549,72.8
4.55,72.6
4.551,72.8
4.5520000000000005,72.8
4.553,73.0
4.554,72.8
4.555,72.8
4.556,72.8
4.557,72.6
4.558,72.8
4.559,72.8
4.5600000000000005,72.6
4.561,72.8
4.562,72.6
4.563,72.4
4.564,72.4
4.565,72.8
4.566,72.4
4.567,72.4
4.5680000000000005,72.6
4.569,72.4
4.57,72.6
4.571,72.6
4.572,72.4
4.573,72.2
4.574,72.6
4.575,72.4
4.5760000000000005,72.4
4.577,72.4
4.578,72.4
4.579,72.6
4.58,72.4
4.581,72.2
4.582,72.6
4.583,72.2
4.5840000000000005,72.4
4.585,72.4
4.586,72.0
4.587,72.4
4.588,72.2
4.589,72.2
4.59,72.2
4.591,72.0
4.5920000000000005,72.2
4.593,72.0
4.594,72.0
4.595,72.0
4.596,72.0
4.597,72.0
4.598,72.0
4.599,71.8
4.6000000000000005,72.0
4.601,72.0
4.602,72.0
4.603,72.0
4.604,72.0
4.605,71.6
4.606,71.8
4.607,71.8
4.6080000000000005,72.0
4.609,71.4
4.61,71.6
4.611,71.6
4.612,71.6
4.613,71.6
4.614,71.6
4.615,71.4
4.616,71.2
4.617,71.2
4.618,71.2
4.619,71.4
4.62,71.2
4.621,71.2
4.622,71.2
4.623,71.2
4.624,71.0
4.625,71.2
4.626,71.2
4.627,71.0
4.628,71.0
4.6290000000000004,70.8
4.63,71.0
4.631,71.0
4.632,71.0
4.633,70.8
4.634,70.6
4.635,70.6
4.636,70.6
4.6370000000000005,70.6
4.638,70.8
4.639,70.6
4.64,70.4
4.641,70.6
4.642,70.4
4.643,70.4
4.644,70.2
4.6450000000000005,70.2
4.646,70.4
4.647,70.0
4.648,70.2
4.649,70.2
4.65,70.2
4.651,70.2
4.652,70.0
4.6530000000000005,70.2
4.654,70.2
4.655,69.8
4.656,69.6
4.657,69.8
4.658,69.6
4.659,69.8
4.66,69.6
4.6610000000000005,69.8
4.662,69.4
4.663,69.4
4.664,69.4
4.665,69.4
4.666,69.2
4.667,69.2
4.668,69.2
4.6690000000000005,69.2
4.67,69.2
4.671,69.0
4.672,69.0
4.673,69.0
4.674,69.0
4.675,68.8
4.676,68.8
4.6770000000000005,68.8
4.678,68.8
4.679,68.8
4.68,68.6
4.681,68.6
4.682,68.4
4.683,68.4
4.684,68.6
4.6850000000000005,68.4
4.686,68.2
4.687,68.4
4.688,68.2
4.689,68.2
4.69,68.2
4.691,68.0
4.692,68.0
4.6930000000000005,68.2
4.694,67.8
4.695,68.0
4.696,67.8
4.697,67.8
4.698,67.8
4.699,67.8
4.7,67.6
4.7010000000000005,67.6
4.702,67.6
4.703,67.4
4.704,67.4
4.705,67.2
4.706,67.6
4.707,67.4
4.708,67.2
4.7090000000000005,67.2
4.71,67.2
4.711,67.2
4.712,67.2
4.713,67.0
4.714,67.2
4.715,66.8
4.716,66.8
4.7170000000000005,66.8
4.718,67.0
4.719,66.8
4.72,66.6
4.721,66.8
4.722,66.6
4.723,66.8
4.724,66.6
4.7250000000000005,66.6
4.726,66.4
4.727,66.4
4.728,66.4
4.729,66.0
4.73,66.4
4.731,66.2
4.732,66.2
4.7330000000000005,66.2
4.734,66.0
4.735,66.0
4.736,66.2
4.737,66.0
4.738,66.0
4.739,65.8
4.74,65.8
4.741,65.8
4.742,66.0
4.743,66.0
4.744,65.8
4.745,65.8
4.746,65.4
4.747,65.6
4.748,65.2
4.749,65.8
4.75,65.6
4.751,65.4
4.752,65.6
4.753,65.4
4.7540000000000004,65.2
4.755,65.2
4.756,65.4
4.757,65.0
4.758,65.2
4.759,65.2
4.76,65.2
4.761,65.0
4.7620000000000005,65.0
4.763,65.0
4.764,65.0
4.765,64.8
4.766,65.0
4.767,64.8
4.768,64.8
4.769,65.0
4.7700000000000005,65.0
4.771,64.6
4.772,64.8
4.773,64.6
4.774,64.6
4.775,64.6
4.776,64.6
4.777,64.6
4.7780000000000005,64.6
4.779,64.6
4.78,64.8
4.781,64.6
4.782,64.6
4.783,64.6
4.784,64.4
4.785,64.4
4.7860000000000005,64.6
4.787,64.4
4.788,64.2
4.789,64.0
4.79,64.2
4.791,64.4
4.792,64.2
4.793,64.2
4.7940000000000005,64.2
4.795,64.0
4.796,64.2
4.797,64.2
4.798,64.2
4.799,64.2
4.8,64.0
4.801,64.2
4.8020000000000005,64.2
4.803,64.0
4.804,64.0
4.805,64.0
4.806,64.0
4.807,63.8
4.808,63.8
4.809,64.2
4.8100000000000005,64.0
4.811,64.0
4.812,64.0
4.813,64.0
4.814,64.0
4.815,63.8
4.816,64.0
4.817,63.8
4.8180000000000005,64.0
4.819,63.6
4.82,63.8
4.821,63.8
4.822,63.8
4.823,64.0
4.824,63.8
4.825,64.0
4.8260000000000005,63.8
4.827,63.8
4.828,63.8
4.829,63.8
4.83,64.0
4.831,63.8
4.832,63.6
4.833,63.8
4.8340000000000005,63.8
4.835,64.0
4.836,63.8
4.837,63.8
4.838,63.8
4.839,63.8
4.84,63.8
4.841,63.8
4.8420000000000005,63.8
4.843,64.0
4.844,64.0
4.845,63.8
4.846,63.8
4.847,63.6
4.848,64.0
4.849,64.0
4.8500000000000005,64.2
4.851,64.0
4.852,64.2
4.853,64.0
4.854,64.0
4.855,64.0
4.856,63.8
4.857,63.8
4.8580000000000005,64.0
4.859,64.2
4.86,63.6
4.861,64.0
4.862,64.2
4.863,63.8
4.864,63.8
4.865,64.2
4.866,64.0
4.867,64.0
4.868,64.2
4.869,64.2
4.87,64.2
4.871,64.2
4.872,64.2
4.873,64.0
4.874,64.2
4.875,64.0
4.876,64.4
4.877,64.0
4.878,64.0
4.8790000000000004,64.2
4.88,64.0
4.881,64.4
4.882,64.4
4.883,64.2
4.884,64.2
4.885,64.4
4.886,64.2
4.8870000000000005,64.4
4.888,64.4
4.889,64.4
4.89,64.2
4.891,64.6
4.892,64.4
4.893,64.6
4.894,64.6
4.8950000000000005,64.4
4.896,64.6
4.897,64.4
4.898,64.6
4.899,64.6
4.9,64.4
4.901,64.4
4.902,64.6
4.9030000000000005,64.4
4.904,64.8
4.905,64.8
4.906,64.6
4.907,64.4
4.908,64.8
4.909,65.0
4.91,64.8
4.9110000000000005,64.6
4.912,64.8
4.913,64.8
4.914,64.8
4.915,64.8
4.916,65.0
4.917,65.0
4.918,65.0
4.9190000000000005,65.0
4.92,65.0
4.921,65.2
4.922,65.2
4.923,65.0
4.924,65.0
4.925,65.0
4.926,65.2
4.9270000000000005,65.2
4.928,65.4
4.929,65.2
4.93,65.6
4.931,65.2
4.932,65.2
4.933,65.4
4.934,65.6
4.9350000000000005,65.8
4.936,65.8
4.937,65.4
4.938,65.6
4.939,65.4
4.94,65.8
4.941,65.6
4.942,65.8
4.9430000000000005,65.8
4.944,65.8
4.945,65.6
4.946,65.8
4.947,66.0
4.948,66.0
4.949,66.0
4.95,66.0
4.9510000000000005,66.2
4.952,66.2
4.953,65.8
4.954,66.4
4.955,66.0
4.956,66.4
4.957,66.4
4.958,66.2
4.9590000000000005,66.4
4.96,66.2
4.961,66.6
4.962,66.6
4.963,66.4
4.964,66.6
4.965,66.6
4.966,66.6
4.9670000000000005,66.8
4.968,66.8
4.969,66.6
4.97,66.8
4.971,67.0
4.972,66.8
4.973,66.8
4.974,67.0
4.9750000000000005,67.2
4.976,67.2
4.977,67.2
4.978,67.4
4.979,67.2
4.98,67.2
4.981,67.4
4.982,67.2
4.9830000000000005,67.4
4.984,67.6
4.985,67.4
4.986,67.6
4.987,67.6
4.988,67.8
4.989,67.6
4.99,67.8
4.9910000000000005,67.8
4.992,67.8
4.993,68.0
4.994,68.0
4.995,68.0
4.996,68.0
4.997,68.2
4.998,68.2
4.999,68.2
5.0,68.0
5.001,68.2
5.002,68.2
5.003,68.2
5.0040000000000004,68.4
5.005,68.4
5.006,68.4
5.007,68.6
5.008,68.6
5.009,68.8
5.01,68.8
5.011,68.8
5.0120000000000005,68.8
5.013,68.8
5.014,68.8
5.015,68.8
5.016,68.8
5.017,69.2
5.018,69.0
5.019,69.2
5.0200000000000005,69.2
5.021,69.0
5.022,69.2
5.023,69.2
5.024,69.4
5.025,69.4
5.026,69.4
5.027,69.6
5.0280000000000005,69.6
5.029,69.6
5.03,69.4
5.031,69.6
5.032,69.8
5.033,69.8
5.034,70.0
5.035,70.0
5.0360000000000005,70.0
5.037,69.8
5.038,69.8
5.039,70.0
5.04,70.2
5.041,70.0
5.042,70.2
5.043,70.2
5.0440000000000005,70.2
5.045,70.2
5.046,70.6
5.047,70.4
5.048,70.4
5.049,70.6
5.05,70.6
5.051,70.8
5.0520000000000005,70.4
5.053,70.8
5.054,70.6
5.055,70.8
5.056,70.8
5.057,70.8
5.058,70.8
5.059,70.8
5.0600000000000005,71.0
5.061,71.0
5.062,71.0
5.063,71.0
5.064,71.0
5.065,71.0
5.066,71.2
5.067,71.2
5.0680000000000005,71.2
5.069,71.2
5.07,71.4
5.071,71.4
5.072,71.2
5.073,71.2
5.074,71.6
5.075,71.2
5.0760000000000005,71.6
5.077,71.6
5.078,71.4
5.079,72.0
5.08,71.8
5.081,71.8
5.082,71.8
5.083,72.0
5.0840000000000005,71.8
5.085,72.0
5.086,71.8
5.087,72.0
5.088,71.8
5.089,72.0
5.09,71.8
5.091,72.0
5.0920000000000005,72.0
5.093,72.0
5.094,72.0
5.095,72.2
5.096,72.2
5.097,72.2
5.098,72.0
5.099,72.0
5.1000000000000005,72.0
5.101,72.0
5.102,72.2
5.103,72.2
5.104,72.2
5.105,72.2
5.106,72.2
5.107,72.4
5.1080000000000005,72.6
5.109,72.2
5.11,72.2
5.111,72.2
5.112,72.4
5.113,72.6
5.114,72.6
5.115,72.6
5.1160000000000005,72.4
5.117,72.4
5.118,72.6
5.119,72.6
5.12,72.6
5.121,72.4
5.122,72.6
5.123,72.6
5.124,72.6
5.125,72.6
5.126,72.6
5.127,72.8
5.128,72.8
5.1290000000000004,72.6
5.13,72.6
5.131,72.8
5.132,72.8
5.133,72.8
5.134,72.8
5.135,72.6
5.136,72.6
5.1370000000000005,73.0
5.138,73.0
5.139,72.8
5.14,72.8
5.141,73.0
5.142,72.8
5.143,72.8
5.144,72.6
5.1450000000000005,72.8
5.146,72.8
5.147,72.8
5.148,73.0
5.149,73.0
5.15,72.8
5.151,72.6
5.152,72.8
5.1530000000000005,72.8
5.154,72.8
5.155,73.0
5.156,72.8
5.157,72.6
5.158,72.8
5.159,72.8
5.16,72.8
5.1610000000000005,72.6
5.162,72.8
5.163,72.6
5.164,72.6
5.165,72.8
5.166,72.8
5.167,72.6
5.168,72.8
5.1690000000000005,72.8
5.17,72.4
5.171,72.6
5.172,72.6
5.173,72.8
5.174,72.6
5.175,72.6
5.176,72.6
5.1770000000000005,72.6
5.178,72.6
5.179,72.6
5.18,72.8
5.181,72.4
5.182,72.6
5.183,72.6
5.184,72.6
5.1850000000000005,72.4
5.186,72.4
5.187,72.4
5.188,72.6
5.189,72.4
5.19,72.4
5.191,72.4
5.192,72.4
5.1930000000000005,72.4
5.194,72.4
5.195,72.2
5.196,72.4
5.197,72.4
5.198,72.2
5.199,72.0
5.2,72.0
5.2010000000000005,72.4
5.202,72.4
5.203,72.0
5.204,72.0
5.205,72.2
5.206,72.0
5.207,72.2
5.208,72.0
5.2090000000000005,72.0
5.21,71.8
5.211,72.0
5.212,72.0
5.213,72.0
5.214,72.0
5.215,72.0
5.216,72.0
5.2170000000000005,72.0
5.218,71.8
5.219,71.8
5.22,71.8
5.221,71.6
5.222,71.6
5.223,71.6
5.224,71.6
5.2250000000000005,71.6
5.226,71.6
5.227,71.6
5.228,71.2
5.229,71.2
5.23,71.4
5.231,71.2
5.232,71.4
5.2330000000000005,71.2
5.234,71.2
5.235,71.2
5.236,71.2
5.237,71.2
5.238,71.0
5.239,70.8
5.24,71.4
5.2410000000000005,71.0
5.242,70.8
5.243,70.8
5.244,70.8
5.245,71.0
5.246,71.0
5.247,70.8
5.248,70.8
5.249,70.6
5.25,70.6
5.251,70.8
5.252,70.4
5.253,70.6
5.2540000000000004,70.4
5.255,70.6
5.256,70.4
5.257,70.4
5.258,70.4
5.259,70.0
5.26,70.2
5.261,70.4
5.2620000000000005,70.2
5.263,70.2
5.264,70.2
5.265,70.2
5.266,69.8
5.267,70.0
5.268,70.0
5.269,69.6
5.2700000000000005,69.8
5.271,69.6
5.272,69.6
5.273,69.6
5.274,69.6
5.275,69.6
5.276,69.4
5.277,69.4
5.2780000000000005,69.2
5.279,69.4
5.28,69.4
5.281,69.4
5.282,69.0
5.283,69.2
5.284,69.2
5.285,69.0
5.2860000000000005,68.8
5.287,68.8
5.288,69.0
5.289,68.8
5.29,68.8
5.291,68.6
5.292,68.8
5.293,68.8
5.2940000000000005,68.6
5.295,68.6
5.296,68.6
5.297,68.4
5.298,68.4
5.299,68.4
5.3,68.2
5.301,68.4
5.3020000000000005,68.0
5.303,68.2
5.304,68.0
5.305,68.2
5.306,68.0
5.307,67.8
5.308,67.8
5.309,68.0
5.3100000000000005,67.8
5.311,67.8
5.312,67.8
5.313,67.8
5.314,67.6
5.315,67.6
5.316,67.4
5.317,67.6
5.3180000000000005,67.4
5.319,67.4
5.32,67.4
5.321,67.4
5.322,67.2
5.323,67.4
5.324,67.2
5.325,67.2
5.3260000000000005,67.0
5.327,67.0
5.328,67.0
5.329,67.2
5.33,67.0
5.331,66.8
5.332,66.8
5.333,66.6
5.3340000000000005,66.8
5.335,66.8
5.336,66.8
5.337,66.6
5.338,66.6
5.339,66.6
5.34,66.4
5.341,66.2
5.3420000000000005,66.2
5.343,66.4
5.344,66.4
5.345,66.2
5.346,66.2
5.347,66.2
5.348,66.2
5.349,66.0
5.3500000000000005,66.2
5.351,65.8
5.352,66.0
5.353,65.8
5.354,66.0
5.355,65.6
5.356,65.8
5.357,65.8
5.3580000000000005,65.6
5.359,65.6
5.36,65.8
5.361,65.6
5.362,65.4
5.363,65.6
5.364,65.6
5.365,65.4
5.3660000000000005,65.4
5.367,65.4
5.368,65.2
5.369,65.2
5.37,65.2
5.371,65.4
5.372,65.2
5.373,65.2
5.3740000000000006,65.0
5.375,65.0
5.376,65.2
5.377,65.2
5.378,64.8
5.3790000000000004,64.8
5.38,65.0
5.381,64.8
5.382,64.8
5.383,64.6
5.384,64.8
5.385,64.8
5.386,64.8
5.3870000000000005,64.6
5.388,64.6
5.389,64.6
5.39,64.6
5.391,64.4
5.392,64.4
5.393,64.6
5.394,64.6
5.3950000000000005,64.6
5.396,64.4
5.397,64.4
5.398,64.4
5.399,64.4
5.4,64.6
5.401,64.4
5.402,64.2
5.4030000000000005,64.4
5.404,64.2
5.405,64.4
5.406,64.2
5.407,64.0
5.408,64.2
5.409,64.2
5.41,64.2
5.4110000000000005,64.2
5.412,64.2
5.413,64.0
5.414,64.2
5.415,64.0
5.416,64.2
5.417,64.2
5.418,64.0
5.4190000000000005,64.0
5.42,64.0
5.421,64.0
5.422,64.0
5.423,64.2
5.424,64.2
5.425,64.2
5.426,63.8
5.4270000000000005,63.6
5.428,63.8
5.429,64.0
5.43,64.0
5.431,64.2
5.432,64.0
5.433,64.0
5.434,63.8
5.4350000000000005,64.0
5.436,63.8
5.437,63.8
5.438,64.0
5.439,63.8
5.44,63.8
5.441,63.8
5.442,63.8
5.4430000000000005,64.2
5.444,64.0
5.445,63.8
5.446,63.8
5.447,63.8
5.448,63.8
5.449,63.8
5.45,63.8
5.4510000000000005,64.0
5.452,63.8
5.453,64.0
5.454,63.6
5.455,63.8
5.456,64.0
5.457,63.8
5.458,63.8
5.4590000000000005,63.8
5.46,63.6
5.461,63.8
5.462,64.0
5.463,64.0
5.464,64.0
5.465,64.0
5.466,64.0
5.4670000000000005,63.6
5.468,63.8
5.469,64.0
5.47,64.0
5.471,64.0
5.472,64.0
5.473,64.0
5.474,64.0
5.4750000000000005,64.0
5.476,64.2
5.477,64.0
5.478,64.0
5.479,64.0
5.48,64.0
5.481,64.2
5.482,63.8
5.4830000000000005,64.2
5.484,63.8
5.485,64.2
5.486,64.0
5.487,64.2
5.488,64.2
5.489,64.2
5.49,64.2
5.4910000000000005,64.2
5.492,64.2
5.493,64.4
5.494,64.2
5.495,64.2
5.496,64.0
5.497,64.2
5.498,64.2
5.4990000000000006,64.4
5.5,64.0
5.501,64.2
5.502,64.4
5.503,64.4
5.5040000000000004,64.6
5.505,64.2
5.506,64.4
5.507,64.2
5.508,64.6
5.509,64.6
5.51,64.4
5.511,64.6
5.5120000000000005,64.4
5.513,64.8
5.514,64.4
5.515,64.6
5.516,64.8
5.517,64.6
5.518,64.8
5.519,64.6
5.5200000000000005,64.6
5.521,64.6
5.522,65.0
5.523,64.8
5.524,65.0
5.525,64.8
5.526,64.8
5.527,65.0
5.5280000000000005,65.0
5.529,65.2
5.53,65.0
5.531,65.0
5.532,64.8
5.533,65.0
5.534,65.0
5.535,65.0
5.5360000000000005,65.0
5.537,65.0
5.538,65.0
5.539,65.2
5.54,65.0
5.541,65.4
5.542,65.2
5.543,65.4
5.5440000000000005,65.4
5.545,65.6
5.546,65.4
5.547,65.6
5.548,65.4
5.549,65.4
5.55,65.6
5.551,65.8
5.5520000000000005,65.8
5.553,65.6
5.554,65.6
5.555,65.8
5.556,65.8
5.557,65.8
5.558,65.8
5.559,65.8
5.5600000000000005,66.0
5.561,66.0
5.562,66.0
5.563,66.0
5.564,66.2
5.565,66.2
5.566,66.0
5.567,66.2
5.5680000000000005,66.0
5.569,66.2
5.57,66.0
5.571,66.4
5.572,66.4
5.573,66.4
5.574,66.4
5.575,66.4
5.5760000000000005,66.6
5.577,66.6
5.578,66.4
5.579,66.6
5.58,66.6
5.581,66.6
5.582,66.8
5.583,66.6
5.5840000000000005,67.0
5.585,66.8
5.586,67.0
5.587,67.0
5.588,67.0
5.589,67.2
5.59,67.0
5.591,67.2
5.5920000000000005,67.2
5.593,67.4
5.594,67.4
5.595,67.2
5.596,67.4
5.597,67.6
5.598,67.4
5.599,67.6
5.6000000000000005,67.6
5.601,67.6
5.602,67.6
5.603,67.8
5.604,67.6
5.605,67.8
5.606,67.8
5.607,67.8
5.6080000000000005,68.0
5.609,68.0
5.61,68.2
5.611,68.0
5.612,68.0
5.613,68.2
5.614,68.2
5.615,68.2
5.6160000000000005,68.4
5.617,68.4
5.618,68.6
5.619,68.2
5.62,68.4
5.621,68.4
5.622,68.6
5.623,68.8
5.6240000000000006,68.8
5.625,68.8
5.626,68.8
5.627,68.8
5.628,68.8
5.6290000000000004,69.0
5.63,69.0
5.631,69.2
5.632,69.0
5.633,69.0
5.634,69.2
5.635,69.2
5.636,69.4
5.6370000000000005,69.2
5.638,69.4
5.639,69.4
5.64,69.4
5.641,69.4
5.642,69.6
5.643,69.8
5.644,69.8
5.6450000000000005,69.8
5.646,69.6
5.647,70.0
5.648,69.8
5.649,70.2
5.65,70.0
5.651,69.8
5.652,70.0
5.6530000000000005,70.0
5.654,70.4
5.655,70.2
5.656,70.2
5.657,70.4
5.658,70.2
5.659,70.2
5.66,70.4
5.6610000000000005,70.6
5.662,70.4
5.663,70.6
5.664,70.6
5.665,70.4
5.666,70.6
5.667,70.6
5.668,70.8
5.6690000000000005,70.8
5.67,70.8
5.671,71.0
5.672,70.8
5.673,71.0
5.674,71.0
5.675,70.8
5.676,71.0
5.6770000000000005,71.0
5.678,71.0
5.679,71.4
5.68,71.0
5.681,71.2
5.682,71.2
5.683,71.4
5.684,71.2
5.6850000000000005,71.2
5.686,71.4
5.687,71.4
5.688,71.4
5.689,71.6
5.69,71.6
5.691,71.8
5.692,71.6
5.6930000000000005,71.4
5.694,71.8
5.695,71.4
5.696,72.0
5.697,71.6
5.698,71.8
5.699,71.8
5.7,71.8
5.7010000000000005,72.0
5.702,72.0
5.703,71.8
5.704,71.8
5.705,72.0
5.706,71.8
5.707,72.2
5.708,72.0
5.7090000000000005,72.2
5.71,72.2
5.711,72.2
5.712,72.2
5.713,72.2
5.714,72.2
5.715,72.2
5.716,72.2
5.7170000000000005,72.2
5.718,72.2
5.719,72.2
5.72,72.4
5.721,72.4
5.722,72.4
5.723,72.2
5.724,72.4
5.7250000000000005,72.6
5.726,72.4
5.727,72.4
5.728,72.4
5.729,72.4
5.73,72.6
5.731,72.6
5.732,72.6
5.7330000000000005,72.6
5.734,72.6
5.735,72.8
5.736,72.6
5.737,72.6
5.738,72.4
5.739,72.6
5.74,72.6
5.7410000000000005,72.8
5.742,72.8
5.743,72.8
5.744,72.6
5.745,72.6
5.746,72.8
5.747,72.6
5.748,72.6
5.7490000000000006,72.8
5.75,72.8
5.751,72.6
5.752,72.8
5.753,72.8
5.7540000000000004,73.0
5.755,72.8
5.756,73.0
5.757000000000001,72.8
5.758,72.8
5.759,72.8
5.76,73.0
5.761,73.0
5.7620000000000005,73.0
5.763,73.0
5.764,72.8
5.765,73.0
5.766,73.0
5.767,73.0
5.768,72.8
5.769,72.8
5.7700000000000005,73.0
5.771,72.8
5.772,72.8
5.773,73.0
5.774,72.8
5.775,73.0
5.776,72.8
5.777,72.8
5.7780000000000005,72.8
5.779,72.6
5.78,72.8
5.781,72.8
5.782,72.8
5.783,72.8
5.784,72.6
5.785,72.8
5.7860000000000005,72.8
5.787,72.6
5.788,72.8
5.789,72.8
5.79,72.6
5.791,72.4
5.792,72.4
5.793,72.4
5.7940000000000005,72.6
5.795,72.8
5.796,72.6
5.797,72.4
5.798,72.6
5.799,72.6
5.8,72.4
5.801,72.4
5.8020000000000005,72.2
5.803,72.4
5.804,72.4
5.805,72.4
5.806,72.4
5.807,72.4
5.808,72.4
5.809,72.4
5.8100000000000005,72.4
5.811,72.4
5.812,72.4
5.813,72.2
5.814,72.2
5.815,72.2
5.816,72.2
5.817,72.2
5.8180000000000005,72.0
5.819,72.0
5.82,72.0
5.821,72.2
5.822,71.8
5.823,72.0
5.824,72.0
5.825,72.0
5.8260000000000005,72.0
5.827,72.0
5.828,71.8
5.829,71.8
5.83,71.8
5.831,72.0
5.832,71.6
5.833,71.8
5.8340000000000005,71.6
5.835,71.6
5.836,71.8
5.837,71.4
5.838,71.6
5.839,71.6
5.84,71.6
5.841,71.6
5.8420000000000005,71.4
5.843,71.6
5.844,71.2
5.845,71.4
5.846,71.2
5.847,71.4
5.848,71.2
5.849,71.0
5.8500000000000005,71.0
5.851,71.2
5.852,71.0
5.853,71.0
5.854,70.8
5.855,71.0
5.856,70.8
5.857,70.8
5.8580000000000005,70.8
5.859,70.8
5.86,70.6
5.861,70.6
5.862,70.8
5.863,70.4
5.864,70.8
5.865,70.6
5.8660000000000005,70.6
5.867,70.4
5.868,70.4
5.869,70.6
5.87,70.4
5.871,70.4
5.872,70.4
5.873,70.4
5.8740000000000006,70.2
5.875,70.2
5.876,70.2
5.877,70.0
5.878,69.8
5.8790000000000004,70.0
5.88,69.8
5.881,70.0
5.882000000000001,69.8
5.883,69.8
5.884,69.8
5.885,69.8
5.886,69.8
5.8870000000000005,69.6
5.888,69.8
5.889,69.4
5.89,69.6
5.891,69.2
5.892,69.2
5.893,69.2
5.894,69.4
5.8950000000000005,69.2
5.896,69.2
5.897,69.2
5.898,69.2
5.899,69.0
5.9,69.0
5.901,69.0
5.902,68.8
5.9030000000000005,68.8
5.904,68.8
5.905,68.6
5.906,68.6
5.907,68.6
5.908,68.6
5.909,68.6
5.91,68.4
5.9110000000000005,68.4
5.912,68.4
5.913,68.4
5.914,68.4
5.915,68.2
5.916,68.2
5.917,68.2
5.918,68.0
5.9190000000000005,68.0
5.92,68.0
5.921,67.8
5.922,68.0
5.923,67.6
5.924,68.0
5.925,67.8
5.926,67.8
5.9270000000000005,67.6
5.928,67.6
5.929,67.6
5.93,67.6
5.931,67.6
5.932,67.4
5.933,67.4
5.934,67.2
5.9350000000000005,67.2
5.936,67.0
5.937,67.2
5.938,67.0
5.939,67.0
5.94,67.0
5.941,67.0
5.942,67.2
5.9430000000000005,66.8
5.944,67.0
5.945,66.8
5.946,66.8
5.947,66.8
5.948,66.6
5.949,66.6
5.95,66.6
5.9510000000000005,66.6
5.952,66.6
5.953,66.4
5.954,66.4
5.955,66.4
5.956,66.4
5.957,66.4
5.958,66.2
5.9590000000000005,66.2
5.96,66.2
5.961,66.2
5.962,66.0
5.963,66.2
5.964,65.8
5.965,66.0
5.966,65.8
5.9670000000000005,66.0
5.968,66.0
5.969,66.0
5.97,65.8
5.971,65.8
5.972,65.6
5.973,65.8
5.974,65.6
5.9750000000000005,65.6
5.976,65.8
5.977,65.2
5.978,65.4
5.979,65.4
5.98,65.4
5.981,65.2
5.982,65.4
5.9830000000000005,65.4
5.984,65.2
5.985,65.2
5.986,65.2
5.987,65.2
5.988,65.2
5.989,65.0
5.99,65.2
5.9910000000000005,64.8
5.992,65.0
5.993,65.0
5.994,65.0
5.995,64.6
5.996,64.8
5.997,64.8
5.998,64.8
5.9990000000000006,64.8
6.0,64.6
6.001,64.6
6.002,64.4
6.003,64.6
6.0040000000000004,64.6
6.005,64.8
6.006,64.6
6.007000000000001,64.4
6.008,64.4
6.009,64.4
6.01,64.6
6.011,64.4
6.0120000000000005,64.2
6.013,64.4
6.014,64.2
6.015000000000001,64.2
6.016,64.2
6.017,64.4
6.018,64.2
6.019,64.2
6.0200000000000005,64.0
6.021,64.2
6.022,64.2
6.023,64.2
6.024,64.2
6.025,64.2
6.026,64.0
6.027,64.0
6.0280000000000005,64.2
6.029,64.0
6.03,64.0
6.031,64.0
6.032,64.2
6.033,64.0
6.034,64.0
6.035,64.0
6.0360000000000005,63.8
6.037,64.0
6.038,64.0
6.039,64.2
6.04,64.2
6.041,63.8
6.042,64.0
6.043,63.8
6.0440000000000005,63.8
6.045,64.0
6.046,64.0
6.047,64.0
6.048,63.8
6.049,63.8
6.05,64.0
6.051,63.8
6.0520000000000005,63.8
6.053,64.0
6.054,63.8
6.055,63.8
6.056,64.0
6.057,63.8
6.058,63.8
6.059,64.0
6.0600000000000005,64.0
6.061,63.6
6.062,63.8
6.063,63.8
6.064,63.8
6.065,63.6
6.066,63.8
6.067,64.0
6.0680000000000005,63.8
6.069,63.8
6.07,64.2
6.071,64.0
6.072,64.0
6.073,63.8
6.074,64.0
6.075,63.8
6.0760000000000005,63.8
6.077,63.8
6.078,63.8
6.079,64.0
6.08,64.0
6.081,64.2
6.082,63.8
6.083,64.0
6.0840000000000005,64.0
6.085,64.0
6.086,64.0
6.087,64.2
6.088,64.0
6.089,64.0
6.09,64.0
6.091,63.6
6.0920000000000005,64.0
6.093,64.0
6.094,64.0
6.095,64.0
6.096,64.2
6.097,64.2
6.098,64.0
6.099,64.0
6.1000000000000005,64.0
6.101,64.0
6.102,64.0
6.103,64.2
6.104,64.2
6.105,64.2
6.106,64.2
6.107,64.2
6.1080000000000005,64.2
6.109,64.4
6.11,64.4
6.111,64.2
6.112,64.4
6.113,64.2
6.114,64.4
6.115,64.2
6.1160000000000005,64.2
6.117,64.4
6.118,64.4
6.119,64.2
6.12,64.4
6.121,64.4
6.122,64.6
6.123,64.6
6.1240000000000006,64.4
6.125,64.6
6.126,64.4
6.127,64.6
6.128,64.6
6.1290000000000004,64.4
6.13,64.4
6.131,64.8
6.132000000000001,64.6
6.133,64.8
6.134,64.4
6.135,64.8
6.136,65.0
6.1370000000000005,64.6
6.138,64.8
6.139,64.8
6.140000000000001,64.8
6.141,64.8
6.142,65.0
6.143,65.0
6.144,65.0
6.1450000000000005,65.0
6.146,65.0
6.147,64.8
6.148,65.0
6.149,65.2
6.15,65.2
6.151,65.2
6.152,65.2
6.1530000000000005,65.2
6.154,65.2
6.155,65.4
6.156,65.4
6.157,65.2
6.158,65.6
6.159,65.4
6.16,65.2
6.1610000000000005,65.4
6.162,65.4
6.163,65.8
6.164,65.8
6.165,65.8
6.166,65.8
6.167,65.8
6.168,65.8
6.1690000000000005,65.8
6.17,65.8
6.171,65.8
6.172,66.0
6.173,65.8
6.174,65.8
6.175,65.8
6.176,66.0
6.1770000000000005,66.2
6.178,66.2
6.179,66.2
6.18,66.2
6.181,66.2
6.182,66.2
6.183,66.4
6.184,66.2
6.1850000000000005,66.4
6.186,66.4
6.187,66.6
6.188,66.4
6.189,66.4
6.19,66.4
6.191,66.8
6.192,66.8
6.1930000000000005,66.8
6.194,66.8
6.195,66.8
6.196,66.8
6.197,67.0
6.198,66.8
6.199,67.0
6.2,66.8
6.2010000000000005,67.0
6.202,67.0
6.203,67.2
6.204,67.2
6.205,67.2
6.206,67.2
6.207,67.4
6.208,67.2
6.2090000000000005,67.4
6.21,67.4
6.211,67.4
6.212,67.6
6.213,67.4
6.214,67.6
6.215,67.8
6.216,67.8
6.2170000000000005,67.8
6.218,67.8
6.219,68.0
6.22,67.8
6.221,68.0
6.222,67.8
6.223,68.0
6.224,68.2
6.2250000000000005,68.0
6.226,68.2
6.227,68.2
6.228,68.4
6.229,68.2
6.23,68.4
6.231,68.2
6.232,68.4
6.2330000000000005,68.4
6.234,68.4
6.235,68.6
6.236,68.6
6.237,68.6
6.238,68.6
6.239,69.0
6.24,68.8
6.2410000000000005,69.0
6.242,69.0
6.243,69.0
6.244,69.2
6.245,69.2
6.246,69.0
6.247,69.0
6.248,69.2
6.2490000000000006,69.2
6.25,69.2
6.251,69.4
6.252,69.2
6.253,69.4
6.2540000000000004,69.6
6.255,69.4
6.256,69.4
6.257000000000001,69.8
6.258,69.8
6.259,69.6
6.26,69.6
6.261,69.8
6.2620000000000005,70.0
6.263,69.8
6.264,70.0
6.265000000000001,70.0
6.266,70.2
6.267,70.4
6.268,70.2
6.269,70.2
6.2700000000000005,70.4
6.271,70.4
6.272,70.4
6.273,70.4
6.274,70.4
6.275,70.4
6.276,70.4
6.277,70.4
6.2780000000000005,70.6
6.279,70.6
6.28,70.8
6.281,70.8
6.282,70.6
6.283,70.8
6.284,70.8
6.285,71.0
6.2860000000000005,70.8
6.287,71.0
6.288,70.8
6.289,70.8
6.29,71.0
6.291,71.2
6.292,71.0
6.293,71.0
6.2940000000000005,71.2
6.295,71.4
6.296,71.4
6.297,71.2
6.298,71.4
6.299,71.2
6.3,71.2
6.301,71.6
6.3020000000000005,71.6
6.303,71.6
6.304,71.4
6.305,71.6
6.306,71.6
6.307,71.6
6.308,71.6
6.309,71.4
6.3100000000000005,72.0
6.311,71.6
6.312,71.8
6.313,71.8
6.314,72.0
6.315,72.0
6.316,72.0
6.317,72.0
6.3180000000000005,72.0
6.319,72.0
6.32,72.0
6.321,72.2
6.322,72.0
6.323,72.0
6.324,72.0
6.325,72.2
6.3260000000000005,72.0
6.327,72.2
6.328,72.2
6.329,72.2
6.33,72.2
6.331,72.2
6.332,72.2
6.333,72.2
6.3340000000000005,72.2
6.335,72.4
6.336,72.4
6.337,72.2
6.338,72.4
6.339,72.4
6.34,72.4
6.341,72.4
6.3420000000000005,72.4
6.343,72.6
6.344,72.4
6.345,72.4
6.346,72.4
6.347,72.6
6.348,72.6
6.349,72.4
6.3500000000000005,72.8
6.351,72.6
6.352,72.6
6.353,72.8
6.354,72.6
6.355,72.6
6.356,72.6
6.357,73.0
6.3580000000000005,72.8
6.359,72.6
6.36,72.8
6.361,72.8
6.362,72.6
6.363,73.0
6.364,73.0
6.365,73.0
6.3660000000000005,72.8
6.367,73.0
6.368,73.0
6.369,72.8
6.37,72.8
6.371,72.8
6.372,72.8
6.373,72.6
6.3740000000000006,72.8
6.375,72.8
6.376,72.8
6.377,73.0
6.378,72.8
6.3790000000000004,73.0
6.38,72.8
6.381,73.0
6.382000000000001,73.0
6.383,72.8
6.384,72.8
6.385,72.8
6.386,73.0
6.3870000000000005,72.8
6.388,72.6
6.389,72.8
6.390000000000001,72.8
6.391,72.8
6.392,72.6
6.393,72.8
6.394,72.8
6.3950000000000005,72.8
6.396,72.8
6.397,72.6
6.398000000000001,72.4
6.399,72.6
6.4,72.6
6.401,72.8
6.402,72.6
6.4030000000000005,72.6
6.404,72.6
6.405,72.8
6.406,72.8
6.407,72.8
6.408,72.6
6.409,72.4
6.41,72.6
6.4110000000000005,72.4
6.412,72.4
6.413,72.4
6.414,72.4
6.415,72.6
6.416,72.4
6.417,72.4
6.418,72.2
6.4190000000000005,72.4
6.42,72.6
6.421,72.4
6.422,72.2
6.423,72.2
6.424,72.2
6.425,72.4
6.426,72.2
6.4270000000000005,72.0
6.428,72.2
6.429,72.0
6.43,72.0
6.431,72.0
6.432,72.0
6.433,72.2
6.434,72.2
6.4350000000000005,72.0
6.436,72.2
6.437,72.0
6.438,72.0
6.439,72.0
6.44,71.8
6.441,72.0
6.442,72.0
6.4430000000000005,72.0
6.444,71.8
6.445,71.8
6.446,72.0
6.447,71.6
6.448,71.4
6.449,71.6
6.45,71.8
6.4510000000000005,71.4
6.452,71.6
6.453,71.4
6.454,71.4
6.455,71.6
6.456,71.4
6.457,71.4
6.458,71.2
6.4590000000000005,71.0
6.46,71.4
6.461,71.2
6.462,71.4
6.463,71.2
6.464,71.2
6.465,71.2
6.466,71.0
6.4670000000000005,71.0
6.468,71.0
6.469,71.0
6.47,70.8
6.471,71.0
6.472,70.6
6.473,70.8
6.474,70.8
6.4750000000000005,70.8
6.476,70.6
6.477,70.8
6.478,70.6
6.479,70.6
6.48,70.4
6.481,70.6
6.482,70.6
6.4830000000000005,70.6
6.484,70.4
6.485,70.2
6.486,70.2
6.487,70.2
6.488,70.4
6.489,70.2
6.49,70.0
6.4910000000000005,70.0
6.492,70.0
6.493,70.2
6.494,70.0
6.495,69.8
6.496,69.8
6.497,69.6
6.498,69.6
6.4990000000000006,70.0
6.5,69.6
6.501,69.6
6.502,69.4
6.503,69.4
6.5040000000000004,69.4
6.505,69.2
6.506,69.4
6.507000000000001,69.2
6.508,69.2
6.509,69.2
6.51,69.0
6.511,69.0
6.5120000000000005,69.2
6.513,69.0
6.514,68.8
6.515000000000001,68.8
6.516,68.8
6.517,69.0
6.518,68.8
6.519,68.8
6.5200000000000005,68.6
6.521,68.8
6.522,68.6
6.523000000000001,68.6
6.524,68.6
6.525,68.4
6.526,68.2
6.527,68.4
6.5280000000000005,68.2
6.529,68.2
6.53,68.0
6.531,68.2
6.532,68.0
6.533,67.8
6.534,68.0
6.535,68.0
6.5360000000000005,68.0
6.537,67.8
6.538,67.8
6.539,67.6
6.54,67.8
6.541,67.8
6.542,67.6
6.543,67.4
6.5440000000000005,67.6
6.545,67.6
6.546,67.6
6.547,67.2
6.548,67.4
6.549,67.2
6.55,67.0
6.551,67.0
6.5520000000000005,66.8
6.553,67.2
6.554,67.0
6.555,67.2
6.556,67.0
6.557,67.0
6.558,66.8
6.559,66.8
6.5600000000000005,66.8
6.561,66.8
6.562,66.8
6.563,66.6
6.564,66.6
6.565,66.6
6.566,66.4
6.567,66.4
6.5680000000000005,66.4
6.569,66.4
6.57,66.2
6.571,66.2
6.572,66.2
6.573,66.2
6.574,66.2
6.575,66.0
6.5760000000000005,66.2
6.577,66.0
6.578,66.0
6.579,65.8
6.58,66.0
6.581,65.8
6.582,65.8
6.583,65.8
6.5840000000000005,65.8
6.585,65.6
6.586,65.6
6.587,65.6
6.588,65.8
6.589,65.4
6.59,65.4
6.591,65.2
6.5920000000000005,65.4
6.593,65.4
6.594,65.2
6.595,65.2
6.596,65.0
6.597,65.0
6.598,65.0
6.599,65.2
6.6000000000000005,65.2
6.601,65.0
6.602,65.2
6.603,65.0
6.604,65.0
6.605,64.8
6.606,64.8
6.607,65.0
6.6080000000000005,65.0
6.609,64.8
6.61,64.8
6.611,64.8
6.612,64.8
6.613,64.8
6.614,64.4
6.615,64.6
6.6160000000000005,64.6
6.617,64.8
6.618,64.8
6.619,64.6
6.62,64.4
6.621,64.4
6.622,64.4
6.623,64.4
6.6240000000000006,64.4
6.625,64.2
6.626,64.6
6.627,64.4
6.628,64.4
6.6290000000000004,64.0
6.63,64.2
6.631,64.2
6.632000000000001,64.2
6.633,64.4
6.634,64.4
6.635,64.2
6.636,64.2
6.6370000000000005,64.2
6.638,64.0
6.639,64.2
6.640000000000001,64.2
6.641,64.2
6.642,64.0
6.643,64.0
6.644,64.4
6.6450000000000005,64.0
6.646,64.0
6.647,64.2
6.648000000000001,63.8
6.649,64.2
6.65,64.2
6.651,64.0
6.652,63.8
6.6530000000000005,63.8
6.654,64.0
6.655,63.8
6.656000000000001,64.0
6.657,63.8
6.658,64.0
6.659,63.8
6.66,63.8
6.6610000000000005,64.0
6.662,63.8
6.663,64.0
6.664,64.0
6.665,64.0
6.666,64.0
6.667,63.8
6.668,64.0
6.6690000000000005,63.8
6.67,63.6
6.671,63.8
6.672,63.8
6.673,63.8
6.674,63.8
6.675,64.0
6.676,64.0
6.6770000000000005,63.8
6.678,63.8
6.679,63.8
6.68,64.0
6.681,63.8
6.682,64.0
6.683,63.8
6.684,63.8
6.6850000000000005,63.8
6.686,64.0
6.687,63.8
6.688,63.8
6.689,63.8
6.69,64.0
6.691,63.8
6.692,63.8
6.6930000000000005,63.8
6.694,64.0
6.695,64.0
6.696,64.0
6.697,64.2
6.698,64.0
6.699,64.0
6.7,63.8
6.7010000000000005,64.2
6.702,63.8
6.703,64.0
6.704,64.0
6.705,64.0
6.706,64.0
6.707,64.0
6.708,64.2
6.7090000000000005,63.8
6.71,64.2
6.711,64.2
6.712,64.2
6.713,64.0
6.714,64.0
6.715,64.0
6.716,64.2
6.7170000000000005,64.2
6.718,64.2
6.719,64.0
6.72,64.2
6.721,64.2
6.722,64.2
6.723,64.0
6.724,64.2
6.7250000000000005,64.4
6.726,64.2
6.727,64.2
6.728,64.2
6.729,64.2
6.73,64.6
6.731,64.4
6.732,64.4
6.7330000000000005,64.6
6.734,64.6
6.735,64.4
6.736,64.4
6.737,64.4
6.738,64.6
6.739,64.6
6.74,64.6
6.7410000000000005,64.6
6.742,64.4
6.743,64.6
6.744,64.4
6.745,64.6
6.746,64.8
6.747,64.6
6.748,64.8
6.7490000000000006,64.8
6.75,64.8
6.751,64.8
6.752,64.8
6.753,64.8
6.7540000000000004,64.8
6.755,64.8
6.756,65.0
6.757000000000001,65.0
6.758,64.8
6.759,65.0
6.76,65.0
6.761,65.0
6.7620000000000005,65.2
6.763,65.4
6.764,65.0
6.765000000000001,65.2
6.766,65.2
6.767,65.2
6.768,65.4
6.769,65.0
6.7700000000000005,65.4
6.771,65.4
6.772,65.4
6.773000000000001,65.4
6.774,65.6
6.775,65.8
6.776,65.6
6.777,65.6
6.7780000000000005,65.6
6.779,65.8
6.78,65.8
6.781000000000001,65.8
6.782,65.6
6.783,65.6
6.784,65.8
6.785,66.2
6.7860000000000005,66.0
6.787,65.6
6.788,65.8
6.789,66.2
6.79,66.2
6.791,66.0
6.792,66.0
6.793,66.0
6.7940000000000005,66.2
6.795,66.0
6.796,66.2
6.797,66.4
6.798,66.4
6.799,66.2
6.8,66.4
6.801,66.4
6.8020000000000005,66.6
6.803,66.6
6.804,66.4
6.805,66.8
6.806,66.6
6.807,66.6
6.808,66.8
6.809,66.8
6.8100000000000005,66.8
6.811,67.0
6.812,67.0
6.813,67.0
6.814,67.0
6.815,67.0
6.816,67.2
6.817,67.0
6.8180000000000005,67.2
6.819,67.2
6.82,67.6
6.821,67.2
6.822,67.4
6.823,67.4
6.824,67.4
6.825,67.4
6.8260000000000005,67.4
6.827,67.6
6.828,67.6
6.829,67.8
6.83,67.8
6.831,67.8
6.832,67.8
6.833,68.0
6.8340000000000005,67.8
6.835,68.0
6.836,68.0
6.837,68.0
6.838,68.2
6.839,68.0
6.84,68.0
6.841,68.2
6.8420000000000005,68.4
6.843,68.2
6.844,68.2
6.845,68.4
6.846,68.4
6.847,68.6
6.848,68.6
6.849,68.6
6.8500000000000005,68.4
6.851,68.8
6.852,68.8
6.853,68.8
6.854,68.8
6.855,68.8
6.856,69.0
6.857,69.0
6.8580000000000005,69.0
6.859,69.2
6.86,69.2
6.861,69.2
6.862,69.2
6.863,69.0
6.864,69.4
6.865,69.2
6.8660000000000005,69.6
6.867,69.4
6.868,69.6
6.869,69.6
6.87,69.4
6.871,69.8
6.872,69.8
6.873,69.8
6.8740000000000006,70.0
6.875,69.8
6.876,70.0
6.877,70.2
6.878,70.0
6.8790000000000004,70.2
6.88,70.0
6.881,70.2
6.882000000000001,70.0
6.883,70.2
6.884,70.4
6.885,70.4
6.886,70.2
6.8870000000000005,70.4
6.888,70.4
6.889,70.4
6.890000000000001,70.6
6.891,70.4
6.892,70.6
6.893,70.6
6.894,70.6
6.8950000000000005,70.8
6.896,70.8
6.897,70.8
6.898000000000001,70.8
6.899,71.0
6.9,71.0
6.901,71.0
6.902,71.0
6.9030000000000005,71.2
6.904,71.2
6.905,71.2
6.906000000000001,71.0
6.907,70.8
6.908,71.2
6.909,71.2
6.91,71.2
6.9110000000000005,71.2
6.912,71.2
6.913,71.4
6.914,71.4
6.915,71.6
6.916,71.4
6.917,71.4
6.918,71.4
6.9190000000000005,71.6
6.92,71.6
6.921,71.6
6.922,71.6
6.923,71.8
6.924,71.8
6.925,71.6
6.926,71.8
6.9270000000000005,71.8
6.928,72.0
6.929,72.0
6.93,72.0
6.931,72.0
6.932,72.0
6.933,72.0
6.934,72.0
6.9350000000000005,72.0
6.936,72.2
6.937,72.0
6.938,72.2
6.939,72.0
6.94,72.0
6.941,72.2
6.942,72.0
6.9430000000000005,72.2
6.944,72.2
6.945,72.2
6.946,72.4
6.947,72.2
6.948,72.4
6.949,72.2
6.95,72.4
6.9510000000000005,72.4
6.952,72.2
6.953,72.4
6.954,72.4
6.955,72.6
6.956,72.6
6.957,72.6
6.958,72.6
6.9590000000000005,72.4
6.96,72.6
6.961,72.8
6.962,72.6
6.963,72.6
6.964,72.8
6.965,72.6
6.966,72.8
6.9670000000000005,72.6
6.968,72.8
6.969,72.8
6.97,72.8
6.971,72.8
6.972,72.8
6.973,72.6
6.974,72.8
6.9750000000000005,72.8
6.976,72.8
6.977,73.0
6.978,72.8
6.979,72.8
6.98,72.6
6.981,72.8
6.982,72.8
6.9830000000000005,72.8
6.984,72.8
6.985,72.8
6.986,72.8
6.987,72.8
6.988,72.8
6.989,73.0
6.99,72.8
6.9910000000000005,72.8
6.992,72.6
6.993,72.8
6.994,72.8
6.995,72.8
6.996,73.0
6.997,72.6
6.998,72.8
6.9990000000000006,72.8
7.0,72.8
7.001,73.0
7.002,72.6
7.003,72.8
7.0040000000000004,72.8
7.005,72.8
7.006,72.8
7.007000000000001,72.8
7.008,72.8
7.009,72.6
7.01,72.6
7.011,72.6
7.0120000000000005,72.6
7.013,72.8
7.014,72.6
7.015000000000001,72.6
7.016,72.6
7.017,72.6
7.018,72.8
7.019,72.6
7.0200000000000005,72.4
7.021,72.4
7.022,72.6
7.023000000000001,72.6
7.024,72.6
7.025,72.4
7.026,72.4
7.027,72.4
7.0280000000000005,72.6
7.029,72.6
7.03,72.4
7.031000000000001,72.4
7.032,72.2
7.033,72.4
7.034,72.2
7.035,72.4
7.0360000000000005,72.4
7.037,72.4
7.038,72.2
7.039000000000001,72.2
7.04,72.4
7.041,72.2
7.042,72.0
7.043,72.4
7.0440000000000005,72.0
7.045,72.0
7.046,72.0
7.047,72.2
7.048,72.2
7.049,72.2
7.05,72.0
7.051,71.8
7.0520000000000005,71.8
7.053,71.8
7.054,72.0
7.055,71.8
7.056,72.0
7.057,72.0
7.058,71.8
7.059,72.0
7.0600000000000005,71.8
7.061,71.8
7.062,71.8
7.063,71.8
7.064,71.8
7.065,71.4
7.066,71.4
7.067,71.6
7.0680000000000005,71.4
7.069,71.6
7.07,71.2
7.071,71.2
7.072,71.4
7.073,71.4
7.074,71.4
7.075,71.2
7.0760000000000005,71.4
7.077,71.2
7.078,71.0
7.079,71.2
7.08,71.0
7.081,70.8
7.082,71.0
7.083,71.0
7.0840000000000005,70.8
7.085,71.0
7.086,71.0
7.087,70.8
7.088,70.8
7.089,70.6
7.09,70.8
7.091,70.6
7.0920000000000005,70.6
7.093,70.6
7.094,70.6
7.095,70.6
7.096,70.2
7.097,70.4
7.098,70.4
7.099,70.4
7.1000000000000005,70.4
7.101,70.2
7.102,70.4
7.103,70.0
7.104,70.0
7.105,70.0
7.106,70.2
7.107,70.0
7.1080000000000005,70.0
7.109,69.8
7.11,69.8
7.111,69.8
7.112,69.8
7.113,69.8
7.114,69.8
7.115,69.6
7.1160000000000005,69.4
7.117,69.6
7.118,69.2
7.119,69.4
7.12,69.2
7.121,69.2
7.122,69.2
7.123,69.2
7.1240000000000006,69.0
7.125,69.2
7.126,69.0
7.127,69.0
7.128,68.8
7.1290000000000004,68.8
7.13,69.0
7.131,68.8
7.132000000000001,68.8
7.133,68.6
7.134,68.8
7.135,68.6
7.136,68.4
7.1370000000000005,68.4
7.138,68.4
7.139,68.4
7.140000000000001,68.4
7.141,68.4
7.142,68.2
7.143,68.0
7.144,68.2
7.1450000000000005,68.0
7.146,68.2
7.147,67.8
7.148000000000001,68.0
7.149,68.0
7.15,67.8
7.151,68.0
7.152,67.6
7.1530000000000005,67.6
7.154,67.8
7.155,67.6
7.156000000000001,67.4
7.157,67.4
7.158,67.4
7.159,67.6
7.16,67.4
7.1610000000000005,67.2
7.162,67.4
7.163,67.2
7.164000000000001,67.4
7.165,67.2
7.166,67.0
7.167,67.0
7.168,67.0
7.1690000000000005,67.0
7.17,67.0
7.171,66.8
7.172,67.0
7.173,66.8
7.174,66.8
7.175,66.6
7.176,66.6
7.1770000000000005,66.4
7.178,66.4
7.179,66.4
7.18,66.4
7.181,66.4
7.182,66.4
7.183,66.2
7.184,66.2
7.1850000000000005,66.4
7.186,66.2
7.187,66.2
7.188,66.0
7.189,66.0
7.19,66.0
7.191,65.8
7.192,66.0
7.1930000000000005,66.0
7.194,65.8
7.195,65.8
7.196,66.0
7.197,65.8
7.198,65.8
7.199,65.8
7.2,65.6
7.2010000000000005,65.8
7.202,65.6
7.203,65.2
7.204,65.4
7.205,65.6
7.206,65.4
7.207,65.4
7.208,65.2
7.2090000000000005,65.2
7.21,65.4
7.211,65.2
7.212,65.0
7.213,65.2
7.214,65.2
7.215,64.8
7.216,65.0
7.2170000000000005,65.0
7.218,65.0
7.219,65.0
7.22,65.0
7.221,65.0
7.222,64.8
7.223,64.6
7.224,64.8
7.2250000000000005,64.6
7.226,64.8
7.227,64.8
7.228,64.6
7.229,64.6
7.23,64.4
7.231,64.6
7.232,64.4
7.2330000000000005,64.6
7.234,64.6
7.235,64.4
7.236,64.2
7.237,64.4
7.238,64.4
7.239,64.4
7.24,64.2
7.2410000000000005,64.4
7.242,64.2
7.243,64.2
7.244,64.4
7.245,64.4
7.246,64.2
7.247,64.2
7.248,64.2
7.2490000000000006,64.0
7.25,64.0
7.251,64.0
7.252,64.2
7.253,64.2
7.2540000000000004,64.0
7.255,64.2
7.256,64.0
7.257000000000001,64.0
7.258,64.2
7.259,64.0
7.26,64.0
7.261,64.2
7.2620000000000005,64.0
7.263,64.2
7.264,64.0
7.265000000000001,64.0
7.266,63.8
7.267,64.2
7.268,64.0
7.269,64.2
7.2700000000000005,64.0
7.271,64.0
7.272,63.8
7.273000000000001,64.0
7.274,64.0
7.275,64.0
7.276,63.8
7.277,63.8
7.2780000000000005,63.8
7.279,63.6
7.28,64.0
7.281000000000001,64.0
7.282,63.8
7.283,63.6
7.284,63.8
7.285,64.0
7.2860000000000005,63.8
7.287,63.6
7.288,63.8
7.289000000000001,63.8
7.29,63.8
7.291,64.0
7.292,63.8
7.293,63.8
7.2940000000000005,63.6
7.295,63.8
7.296,64.0
7.297,63.8
7.298,64.0
7.299,63.8
7.3,64.0
7.301,63.8
7.3020000000000005,63.8
7.303,63.8
7.304,64.2
7.305,63.8
7.306,63.8
7.307,63.6
7.308,64.0
7.309,63.8
7.3100000000000005,64.0
7.311,64.2
7.312,64.2
7.313,64.0
7.314,64.0
7.315,63.8
7.316,64.2
7.317,64.0
7.3180000000000005,64.0
7.319,64.2
7.32,64.0
7.321,64.0
7.322,64.0
7.323,64.2
7.324,64.2
7.325,64.0
7.3260000000000005,64.2
7.327,64.4
7.328,64.2
7.329,64.0
7.33,64.2
7.331,64.0
7.332,64.2
7.333,64.2
7.3340000000000005,64.2
7.335,64.2
7.336,64.2
7.337,64.2
7.338,64.2
7.339,64.2
7.34,64.4
7.341,64.2
7.3420000000000005,64.4
7.343,64.6
7.344,64.4
7.345,64.4
7.346,64.4
7.347,64.4
7.348,64.6
7.349,64.2
7.3500000000000005,64.4
7.351,64.6
7.352,64.6
7.353,64.6
7.354,64.8
7.355,64.6
7.356,64.8
7.357,64.8
7.3580000000000005,64.6
7.359,64.8
7.36,64.8
7.361,64.6
7.362,65.0
7.363,64.6
7.364,64.8
7.365,64.8
7.3660000000000005,65.0
7.367,64.8
7.368,64.8
7.369,64.8
7.37,65.0
7.371,64.8
7.372,65.2
7.373,65.0
7.3740000000000006,65.0
7.375,65.0
7.376,65.0
7.377,65.0
7.378,65.0
7.3790000000000004,65.4
7.38,65.2
7.381,65.2
7.382000000000001,65.2
7.383,65.2
7.384,65.2
7.385,65.4
7.386,65.2
7.3870000000000005,65.4
7.388,65.2
7.389,65.6
7.390000000000001,65.8
7.391,65.8
7.392,65.6
7.393,65.6
7.394,65.8
7.3950000000000005,65.8
7.396,65.8
7.397,65.8
7.398000000000001,65.6
7.399,65.8
7.4,66.0
7.401,66.0
7.402,65.8
7.4030000000000005,65.8
7.404,66.2
7.405,66.2
7.406000000000001,66.0
7.407,66.0
7.408,66.0
7.409,66.4
7.41,66.4
7.4110000000000005,66.4
7.412,66.4
7.413,66.4
7.414000000000001,66.2
7.415,66.4
7.416,66.4
7.417,66.2
7.418,66.6
7.4190000000000005,66.6
7.42,66.8
7.421,66.6
7.422000000000001,66.8
7.423,66.8
7.424,66.8
7.425,67.0
7.426,67.0
7.4270000000000005,67.2
7.428,67.2
7.429,67.2
7.43,67.0
7.431,67.0
7.432,67.2
7.433,67.4
7.434,67.2
7.4350000000000005,67.2
7.436,67.4
7.437,67.4
7.438,67.4
7.439,67.4
7.44,67.6
7.441,67.6
7.442,67.8
7.4430000000000005,67.8
7.444,67.6
7.445,67.6
7.446,68.0
7.447,67.8
7.448,68.0
7.449,67.8
7.45,68.0
7.4510000000000005,68.0
7.452,68.2
7.453,68.2
7.454,68.4
7.455,68.4
7.456,68.4
7.457,68.2
7.458,68.6
7.4590000000000005,68.4
7.46,68.4
7.461,68.6
7.462,68.4
7.463,68.6
7.464,68.8
7.465,68.8
7.466,68.8
7.4670000000000005,68.8
7.468,69.0
7.469,68.8
7.47,69.0
7.471,69.0
7.472,69.0
7.473,69.2
7.474,69.0
7.4750000000000005,69.2
7.476,69.2
7.477,69.2
7.478,69.8
7.479,69.4
7.48,69.6
7.481,69.6
7.482,69.6
7.4830000000000005,69.6
7.484,69.6
7.485,69.6
7.486,69.8
7.487,69.6
7.488,69.8
7.489,70.0
7.49,70.0
7.4910000000000005,70.0
7.492,70.0
7.493,70.4
7.494,70.2
7.495,70.2
7.496,70.4
7.497,70.2
7.498,70.4
7.4990000000000006,70.4
7.5,70.4
7.501,70.4
7.502,70.4
7.503,70.4
7.5040000000000004,70.6
7.505,70.6
7.506,70.6
7.507000000000001,70.6
7.508,70.8
7.509,70.8
7.51,70.8
7.511,70.8
7.5120000000000005,70.8
7.513,71.0
7.514,71.0
7.515000000000001,71.0
7.516,70.8
7.517,71.2
7.518,71.0
7.519,71.2
7.5200000000000005,71.0
7.521,71.0
7.522,71.2
7.523000000000001,71.4
7.524,71.4
7.525,71.4
7.526,71.4
7.527,71.0
7.5280000000000005,71.4
7.529,71.4
7.53,71.6
7.531000000000001,71.6
7.532,71.6
7.533,71.6
7.534,71.6
7.535,71.6
7.5360000000000005,71.6
7.537,71.8
7.538,71.8
7.539000000000001,71.8
7.54,71.8
7.541,72.0
7.542,72.0
7.543,71.8
7.5440000000000005,72.0
7.545,72.0
7.546,71.8
7.547000000000001,72.0
7.548,71.8
7.549,72.0
7.55,72.0
7.551,72.2
7.5520000000000005,72.2
7.553,72.0
7.554,72.2
7.555,72.4
7.556,72.2
7.557,72.2
7.558,72.4
7.559,72.4
7.5600000000000005,72.4
7.561,72.2
7.562,72.4
7.563,72.6
7.564,72.4
7.565,72.4
7.566,72.4
7.567,72.6
7.5680000000000005,72.4
7.569,72.4
7.57,72.6
7.571,72.6
7.572,72.6
7.573,72.6
7.574,72.4
7.575,72.6
7.5760000000000005,72.2
7.577,72.6
7.578,72.8
7.579,72.6
7.58,72.6
7.581,72.8
7.582,72.6
7.583,72.8
7.5840000000000005,72.8
7.585,72.6
7.586,72.6
7.587,72.8
7.588,73.0
7.589,72.8
7.59,72.8
7.591,72.8
7.5920000000000005,72.8
7.593,72.8
7.594,73.0
7.595,73.0
7.596,72.6
7.597,72.8
7.598,72.6
7.599,72.8
7.6000000000000005,72.8
7.601,73.0
7.602,72.8
7.603,72.8
7.604,72.8
7.605,72.8
7.606,72.8
7.607,73.0
7.6080000000000005,72.8
7.609,72.8
7.61,72.8
7.611,72.8
7.612,72.8
7.613,72.8
7.614,72.8
7.615,72.8
7.6160000000000005,72.8
7.617,72.6
7.618,72.8
7.619,72.6
7.62,72.8
7.621,72.8
7.622,72.8
7.623,72.8
7.6240000000000006,72.6
7.625,72.6
7.626,72.6
7.627,72.8
7.628,72.6
7.6290000000000004,72.8
7.63,72.8
7.631,72.6
7.632000000000001,72.6
7.633,72.6
7.634,72.8
7.635,72.6
7.636,72.2
7.6370000000000005,72.4
7.638,72.6
7.639,72.6
7.640000000000001,72.6
7.641,72.4
7.642,72.4
7.643,72.6
7.644,72.4
7.6450000000000005,72.2
7.646,72.2
7.647,72.4
7.648000000000001,72.4
7.649,72.4
7.65,72.4
7.651,72.4
7.652,72.2
7.6530000000000005,72.4
7.654,72.4
7.655,72.2
7.656000000000001,72.2
7.657,72.4
7.658,72.2
7.659,72.2
7.66,71.8
7.6610000000000005,72.2
7.662,72.0
7.663,72.2
7.664000000000001,71.8
7.665,72.0
7.666,72.0
7.667,72.0
7.668,71.8
7.6690000000000005,72.0
7.67,72.0
7.671,71.6
7.672000000000001,72.0
7.673,71.6
7.674,71.8
7.675,71.6
7.676,72.0
7.6770000000000005,71.6
7.678,71.4
7.679,71.4
7.68,71.4
7.681,71.6
7.682,71.4
7.683,71.2
7.684,71.2
7.6850000000000005,71.2
7.686,71.2
7.687,71.4
7.688,71.2
7.689,71.2
7.69,71.0
7.691,71.2
7.692,71.0
7.6930000000000005,71.2
7.694,71.2
7.695,70.8
7.696,71.0
7.697,71.0
7.698,71.0
7.699,70.8
7.7,70.8
7.7010000000000005,70.8
7.702,70.8
7.703,70.4
7.704,70.4
7.705,70.4
7.706,70.6
7.707,70.6
7.708,70.4
7.7090000000000005,70.4
7.71,70.2
7.711,70.2
7.712,70.4
7.713,70.2
7.714,70.2
7.715,70.4
7.716,70.2
7.7170000000000005,70.2
7.718,69.8
7.719,70.0
7.72,70.0
7.721,70.0
7.722,70.0
7.723,70.0
7.724,69.6
7.7250000000000005,69.4
7.726,69.8
7.727,69.6
7.728,69.6
7.729,69.4
7.73,69.4
7.731,69.4
7.732,69.2
7.7330000000000005,69.6
7.734,69.2
7.735,69.2
7.736,69.2
7.737,69.2
7.738,69.2
7.739,69.2
7.74,69.0
7.7410000000000005,68.8
7.742,68.8
7.743,69.0
7.744,68.8
7.745,68.8
7.746,68.8
7.747,68.8
7.748,68.6
7.7490000000000006,68.6
7.75,68.6
7.751,68.4
7.752,68.2
7.753,68.4
7.7540000000000004,68.2
7.755,68.4
7.756,68.2
7.757000000000001,68.2
7.758,68.0
7.759,68.0
7.76,68.0
7.761,67.8
7.7620000000000005,68.0
7.763,67.8
7.764,68.0
7.765000000000001,67.8
7.766,67.8
7.767,67.8
7.768,67.6
7.769,67.6
7.7700000000000005,67.6
7.771,67.6
7.772,67.2
7.773000000000001,67.4
7.774,67.2
7.775,67.4
7.776,67.2
7.777,67.2
7.7780000000000005,67.2
7.779,67.2
7.78,67.2
7.781000000000001,67.0
7.782,67.0
7.783,66.8
7.784,66.8
7.785,66.8
7.7860000000000005,66.8
7.787,67.0
7.788,66.6
7.789000000000001,66.6
7.79,66.8
7.791,66.6
7.792,66.4
7.793,66.4
7.7940000000000005,66.4
7.795,66.4
7.796,66.4
7.797000000000001,66.2
7.798,66.2
7.799,66.2
7.8,66.2
7.801,66.2
7.8020000000000005,65.8
7.803,66.0
7.804,66.0
7.805000000000001,66.0
7.806,66.0
7.807,66.0
7.808,65.8
7.809,65.8
7.8100000000000005,65.6
7.811,65.8
7.812,65.6
7.813,65.6
7.814,65.8
7.815,65.4
7.816,65.6
7.817,65.6
7.8180000000000005,65.4
7.819,65.4
7.82,65.6
7.821,65.4
7.822,65.4
7.823,65.2
7.824,65.0
7.825,65.2
7.8260000000000005,65.0
7.827,65.2
7.828,65.2
7.829,65.0
7.83,64.8
7.831,64.8
7.832,65.2
7.833,65.0
7.8340000000000005,64.8
7.835,65.0
7.836,65.0
7.837,64.6
7.838,64.8
7.839,64.8
7.84,64.6
7.841,64.8
7.8420000000000005,64.8
7.843,64.4
7.844,64.4
7.845,64.4
7.846,64.6
7.847,64.4
7.848,64.6
7.849,64.6
7.8500000000000005,64.4
7.851,64.4
7.852,64.4
7.853,64.2
7.854,64.4
7.855,64.4
7.856,64.4
7.857,64.4
7.8580000000000005,64.0
7.859,64.4
7.86,64.0
7.861,64.2
7.862,64.2
7.863,64.4
7.864,64.2
7.865,64.2
7.8660000000000005,64.2
7.867,64.2
7.868,64.2
7.869,64.2
7.87,64.0
7.871,64.0
7.872,64.0
7.873,64.0
7.8740000000000006,64.2
7.875,64.0
7.876,64.0
7.877,64.0
7.878,64.0
7.8790000000000004,63.8
7.88,64.2
7.881,64.0
7.882000000000001,64.0
7.883,64.0
7.884,63.8
7.885,64.0
7.886,64.0
7.8870000000000005,64.0
7.888,63.6
7.889,64.2
7.890000000000001,63.8
7.891,63.8
7.892,64.0
7.893,63.8
7.894,64.0
7.8950000000000005,63.8
7.896,63.8
7.897,63.8
7.898000000000001,63.8
7.899,63.8
7.9,64.0
7.901,63.6
7.902,63.4
7.9030000000000005,63.8
7.904,64.0
7.905,64.0
7.906000000000001,64.0
7.907,63.6
7.908,63.8
7.909,63.8
7.91,64.0
7.9110000000000005,63.8
7.912,64.0
7.913,63.8
7.914000000000001,63.8
7.915,64.0
7.916,64.0
7.917,64.2
7.918,64.0
7.9190000000000005,63.8
7.92,64.0
7.921,64.2
7.922000000000001,63.8
7.923,64.0
7.924,64.0
7.925,63.8
7.926,64.0
7.9270000000000005,64.0
7.928,64.2
7.929,64.0
7.930000000000001,63.8
7.931,64.2
7.932,64.0
7.933,64.0
7.934,64.2
7.9350000000000005,64.0
7.936,63.8
7.937,64.2
7.938,64.2
7.939,64.0
7.94,64.2
7.941,64.2
7.942,64.0
7.9430000000000005,64.0
7.944,64.0
7.945,64.2
7.946,64.2
7.947,64.2
7.948,64.2
7.949,64.2
7.95,64.2
7.9510000000000005,64.2
7.952,64.4
7.953,64.2
7.954,64.4
7.955,64.4
7.956,64.4
7.957,64.4
7.958,64.6
7.9590000000000005,64.2
7.96,64.4
7.961,64.6
7.962,64.6
7.963,64.6
7.964,64.4
7.965,64.4
7.966,64.6
7.9670000000000005,64.8
7.968,64.8
7.969,64.6
7.97,64.4
7.971,64.4
7.972,64.6
7.973,64.8
7.974,65.0
7.9750000000000005,64.6
7.976,64.8
7.977,64.8
7.978,65.0
7.979,64.8
7.98,64.8
7.981,64.6
7.982,64.8
7.9830000000000005,64.8
7.984,65.0
7.985,65.0
7.986,65.2
7.987,65.0
7.988,65.2
7.989,65.2
7.99,65.2
7.9910000000000005,65.2
7.992,65.0
7.993,65.2
7.994,65.2
7.995,65.2
7.996,65.2
7.997,65.4
7.998,65.4
7.9990000000000006,65.2
8.0,65.4
8.001,65.4
8.002,65.6
8.003,65.8
8.004,65.8
8.005,65.8
8.006,65.6
8.007,65.8
8.008000000000001,65.6
8.009,65.8
8.01,65.6
8.011000000000001,65.8
8.012,65.8
8.013,66.0
8.014,65.8
8.015,65.8
8.016,66.0
8.017,66.2
8.018,66.0
8.019,66.2
8.02,66.2
8.021,66.2
8.022,66.0
8.023,66.4
8.024000000000001,66.2
8.025,66.4
8.026,66.4
8.027000000000001,66.4
8.028,66.6
8.029,66.4
8.03,66.6
8.031,66.8
8.032,66.4
8.033,66.8
8.034,66.8
8.035,66.8
8.036,66.8
8.037,66.8
8.038,66.8
8.039,66.8
8.040000000000001,67.0
8.041,67.2
8.042,67.0
8.043000000000001,67.2
8.044,67.2
8.045,67.2
8.046,67.2
8.047,67.2
8.048,67.4
8.049,67.4
8.05,67.6
8.051,67.4
8.052,67.4
8.053,67.6
8.054,67.8
8.055,67.6
8.056000000000001,67.6
8.057,67.8
8.058,67.8
8.059000000000001,68.0
8.06,67.8
8.061,68.0
8.062,68.0
8.063,68.0
8.064,68.0
8.065,68.0
8.066,68.2
8.067,68.4
8.068,68.2
8.069,68.2
8.07,68.4
8.071,68.2
8.072000000000001,68.4
8.073,68.6
8.074,68.4
8.075,68.6
8.076,68.8
8.077,68.6
8.078,68.4
8.079,68.8
8.08,68.8
8.081,68.8
8.082,68.8
8.083,68.8
8.084,69.0
8.085,69.2
8.086,69.0
8.087,69.0
8.088000000000001,69.2
8.089,69.2
8.09,69.4
8.091,69.2
8.092,69.6
8.093,69.4
8.094,69.4
8.095,69.4
8.096,69.6
8.097,69.8
8.098,69.8
8.099,69.4
8.1,69.6
8.101,69.8
8.102,70.0
8.103,70.2
8.104000000000001,70.4
8.105,70.0
8.106,70.0
8.107,70.2
8.108,70.4
8.109,70.2
8.11,70.2
8.111,70.4
8.112,70.4
8.113,70.2
8.114,70.4
8.115,70.6
8.116,70.6
8.117,70.6
8.118,70.8
8.119,70.8
8.120000000000001,70.6
8.121,70.6
8.122,70.8
8.123,70.6
8.124,70.6
8.125,71.0
8.126,70.8
8.127,70.8
8.128,71.0
8.129,71.2
8.13,71.0
8.131,70.8
8.132,71.2
8.133000000000001,71.2
8.134,71.0
8.135,71.4
8.136000000000001,71.2
8.137,71.2
8.138,71.6
8.139,71.4
8.14,71.2
8.141,71.4
8.142,71.4
8.143,71.4
8.144,71.4
8.145,71.6
8.146,71.6
8.147,71.6
8.148,71.8
8.149000000000001,71.6
8.15,71.8
8.151,72.0
8.152000000000001,72.0
8.153,72.0
8.154,71.8
8.155,71.8
8.156,72.0
8.157,71.8
8.158,72.0
8.159,71.8
8.16,72.0
8.161,72.0
8.162,72.2
8.163,72.2
8.164,72.0
8.165000000000001,72.2
8.166,72.2
8.167,72.2
8.168000000000001,72.2
8.169,72.2
8.17,72.2
8.171,72.2
8.172,72.6
8.173,72.0
8.174,72.2
8.175,72.4
8.176,72.4
8.177,72.4
8.178,72.2
8.179,72.4
8.18,72.4
8.181000000000001,72.4
8.182,72.6
8.183,72.6
8.184000000000001,72.6
8.185,72.4
8.186,72.4
8.187,72.6
8.188,72.6
8.189,72.8
8.19,72.4
8.191,72.8
8.192,72.6
8.193,72.6
8.194,72.4
8.195,72.6
8.196,72.8
8.197000000000001,72.6
8.198,72.4
8.199,72.6
8.2,72.6
8.201,72.8
8.202,72.6
8.203,72.8
8.204,72.8
8.205,72.8
8.206,73.0
8.207,72.8
8.208,72.8
8.209,72.8
8.21,72.8
8.211,72.8
8.212,72.8
8.213000000000001,72.6
8.214,73.0
8.215,73.0
8.216,72.8
8.217,72.8
8.218,73.0
8.219,72.8
8.22,72.6
8.221,73.0
8.222,73.0
8.223,72.8
8.224,73.0
8.225,72.6
8.226,72.6
8.227,72.8
8.228,72.8
8.229000000000001,72.6
8.23,72.6
8.231,72.8
8.232,72.6
8.233,72.8
8.234,72.8
8.235,72.8
8.236,72.6
8.237,72.6
8.238,72.8
8.239,72.6
8.24,72.6
8.241,72.6
8.242,72.8
8.243,72.6
8.244,72.8
8.245000000000001,72.8
8.246,72.6
8.247,72.8
8.248,72.6
8.249,72.6
8.25,72.6
8.251,72.6
8.252,72.6
8.253,72.6
8.254,72.2
8.255,72.6
8.256,72.4
8.257,72.4
8.258000000000001,72.4
8.259,72.6
8.26,72.4
8.261000000000001,72.4
8.262,72.2
8.263,72.4
8.264,72.4
8.265,72.4
8.266,72.2
8.267,72.2
8.268,72.0
8.269,72.0
8.27,72.2
8.271,72.2
8.272,72.0
8.273,72.0
8.274000000000001,72.2
8.275,72.2
8.276,72.0
8.277000000000001,71.8
8.278,72.0
8.279,71.8
8.28,71.8
8.281,72.0
8.282,72.0
8.283,72.0
8.284,71.8
8.285,71.6
8.286,71.8
8.287,71.6
8.288,71.8
8.289,71.4
8.290000000000001,71.6
8.291,71.6
8.292,71.4
8.293000000000001,71.4
8.294,71.6
8.295,71.6
8.296,71.4
8.297,71.2
8.298,71.2
8.299,71.2
8.3,71.4
8.301,71.4
8.302,71.2
8.303,71.2
8.304,71.0
8.305,71.0
8.306000000000001,71.0
8.307,70.8
8.308,71.0
8.309000000000001,71.0
8.31,70.8
8.311,70.8
8.312,70.8
8.313,70.8
8.314,70.8
8.315,70.6
8.316,71.0
8.317,70.8
8.318,70.6
8.319,70.6
8.32,70.6
8.321,70.4
8.322000000000001,70.8
8.323,70.6
8.324,70.6
8.325,70.2
8.326,70.4
8.327,70.4
8.328,70.2
8.329,70.2
8.33,70.2
8.331,70.0
8.332,70.0
8.333,70.0
8.334,70.0
8.335,69.8
8.336,69.8
8.337,69.8
8.338000000000001,69.8
8.339,69.4
8.34,69.6
8.341,69.6
8.342,69.6
8.343,69.6
8.344,69.4
8.345,69.2
8.346,69.2
8.347,69.4
8.348,69.2
8.349,69.2
8.35,69.2
8.351,69.2
8.352,69.0
8.353,68.8
8.354000000000001,69.0
8.355,68.8
8.356,68.8
8.357,68.8
8.358,68.6
8.359,68.8
8.36,68.8
8.361,68.6
8.362,68.6
8.363,68.4
8.364,68.6
8.365,68.4
8.366,68.4
8.367,68.2
8.368,68.4
8.369,68.4
8.370000000000001,68.2
8.371,68.2
8.372,68.2
8.373,68.2
8.374,68.0
8.375,68.0
8.376,67.8
8.377,68.0
8.378,67.8
8.379,67.6
8.38,67.6
8.381,67.6
8.382,67.6
8.383000000000001,67.6
8.384,67.6
8.385,67.6
8.386000000000001,67.6
8.387,67.4
8.388,67.2
8.389,67.4
8.39,67.2
8.391,67.2
8.392,67.2
8.393,67.0
8.394,67.2
8.395,67.0
8.396,66.8
8.397,66.8
8.398,66.8
8.399000000000001,66.8
8.4,66.8
8.401,66.8
8.402000000000001,66.8
8.403,66.6
8.404,66.6
8.405,66.4
8.406,66.4
8.407,66.2
8.408,66.4
8.409,66.2
8.41,66.2
8.411,66.2
8.412,66.4
8.413,66.2
8.414,66.2
8.415000000000001,66.4
8.416,66.2
8.417,66.2
8.418000000000001,65.8
8.419,66.2
8.42,65.8
8.421,66.0
8.422,65.8
8.423,65.8
8.424,65.6
8.425,65.8
8.426,65.8
8.427,65.6
8.428,65.6
8.429,65.6
8.43,65.6
8.431000000000001,65.4
8.432,65.8
8.433,65.4
8.434000000000001,65.4
8.435,65.4
8.436,65.2
8.437,65.2
8.438,65.2
8.439,65.0
8.44,65.2
8.441,65.0
8.442,65.2
8.443,65.2
8.444,64.8
8.445,65.0
8.446,65.0
8.447000000000001,64.8
8.448,65.0
8.449,65.0
8.45,64.8
8.451,65.0
8.452,64.6
8.453,64.8
8.454,64.6
8.455,64.6
8.456,64.6
8.457,64.4
8.458,64.6
8.459,64.8
8.46,64.4
8.461,64.6
8.462,64.4
8.463000000000001,64.6
8.464,64.4
8.465,64.2
8.466,64.2
8.467,64.0
8.468,64.4
8.469,64.4
8.47,64.2
8.471,64.4
8.472,64.2
8.473,64.4
8.474,64.2
8.475,64.2
8.476,64.2
8.477,64.0
8.478,64.0
8.479000000000001,64.2
8.48,64.2
8.481,64.2
8.482,64.2
8.483,64.2
8.484,64.2
8.485,64.2
8.486,64.2
8.487,64.0
8.488,63.8
8.489,63.8
8.49,64.0
8.491,64.0
8.492,64.2
8.493,64.0
8.494,64.2
8.495000000000001,63.8
8.496,64.0
8.497,64.0
8.498,64.0
8.499,64.0
8.5,63.8
8.501,63.8
8.502,63.8
8.503,64.0
8.504,64.0
8.505,63.8
8.506,64.0
8.507,63.8
8.508000000000001,64.0
8.509,64.0
8.51,63.8
8.511000000000001,63.8
8.512,64.0
8.513,63.8
8.514,64.0
8.515,64.0
8.516,63.8
8.517,63.8
8.518,64.0
8.519,63.6
8.52,64.2
8.521,63.8
8.522,63.8
8.523,63.8
8.524000000000001,63.8
8.525,64.2
8.526,63.8
8.527000000000001,63.6
8.528,64.2
8.529,63.6
8.53,63.8
8.531,63.8
8.532,63.8
8.533,63.8
8.534,63.8
8.535,64.0
8.536,64.0
8.537,63.8
8.538,64.0
8.539,63.8
8.540000000000001,64.0
8.541,64.0
8.542,64.0
8.543000000000001,63.8
8.544,64.2
8.545,64.2
8.546,64.0
8.547,64.0
8.548,64.0
8.549,64.2
8.55,64.2
8.551,64.0
8.552,64.2
8.553,64.2
8.554,64.2
8.555,64.2
8.556000000000001,64.4
8.557,64.2
8.558,64.4
8.559000000000001,64.2
8.56,64.4
8.561,64.4
8.562,64.4
8.563,64.4
8.564,64.2
8.565,64.2
8.566,64.0
8.567,64.4
8.568,64.4
8.569,64.2
8.57,64.4
8.571,64.4
8.572000000000001,64.4
8.573,64.2
8.574,64.4
8.575000000000001,64.4
8.576,64.4
8.577,64.4
8.578,64.4
8.579,64.6
8.58,64.4
8.581,64.4
8.582,64.6
8.583,64.6
8.584,64.8
8.585,64.8
8.586,64.6
8.587,64.8
8.588000000000001,64.6
8.589,64.8
8.59,64.6
8.591,65.0
8.592,64.8
8.593,64.8
8.594,64.8
8.595,64.8
8.596,65.0
8.597,65.2
8.598,65.0
8.599,65.0
8.6,65.2
8.601,65.0
8.602,65.0
8.603,65.2
8.604000000000001,65.2
8.605,65.2
8.606,65.2
8.607,65.2
8.608,65.2
8.609,65.2
8.61,65.4
8.611,65.4
8.612,65.4
8.613,65.4
8.614,65.6
8.615,65.6
8.616,65.2
8.617,65.4
8.618,65.6
8.619,65.8
8.620000000000001,65.6
8.621,65.8
8.622,65.6
8.623,65.8
8.624,65.8
8.625,65.8
8.626,65.8
8.627,65.8
8.628,66.0
8.629,66.0
8.63,66.0
8.631,66.0
8.632,66.0
8.633000000000001,66.4
8.634,66.2
8.635,66.0
8.636000000000001,66.2
8.637,66.2
8.638,66.4
8.639,66.4
8.64,66.4
8.641,66.4
8.642,66.2
8.643,66.4
8.644,66.6
8.645,66.6
8.646,66.8
8.647,66.6
8.648,66.8
8.649000000000001,66.8
8.65,66.8
8.651,66.8
8.652000000000001,66.8
8.653,67.0
8.654,67.0
8.655,67.0
8.656,67.2
8.657,67.0
8.658,67.0
8.659,67.2
8.66,67.2
8.661,67.4
8.662,67.4
8.663,67.2
8.664,67.2
8.665000000000001,67.4
8.666,67.6
8.667,67.6
8.668000000000001,67.6
8.669,67.6
8.67,67.8
8.671,67.8
8.672,67.8
8.673,67.8
8.674,68.0
8.675,67.8
8.676,68.0
8.677,68.2
8.678,68.2
8.679,68.2
8.68,68.2
8.681000000000001,68.2
8.682,68.4
8.683,68.4
8.684000000000001,68.4
8.685,68.2
8.686,68.6
8.687,68.6
8.688,68.4
8.689,68.6
8.69,68.8
8.691,68.6
8.692,68.8
8.693,68.8
8.694,68.8
8.695,68.8
8.696,68.8
8.697000000000001,69.2
8.698,69.0
8.699,69.0
8.700000000000001,69.0
8.701,69.2
8.702,69.2
8.703,69.4
8.704,69.2
8.705,69.6
8.706,69.2
8.707,69.4
8.708,69.4
8.709,69.6
8.71,69.6
8.711,69.8
8.712,69.8
8.713000000000001,69.8
8.714,70.0
8.715,69.8
8.716,69.8
8.717,70.0
8.718,70.0
8.719,70.2
8.72,70.0
8.721,70.0
8.722,70.2
8.723,70.4
8.724,70.4
8.725,70.2
8.726,70.4
8.727,70.2
8.728,70.4
8.729000000000001,70.6
8.73,70.4
8.731,70.4
8.732,70.6
8.733,70.6
8.734,70.6
8.735,70.6
8.736,70.6
8.737,70.8
8.738,70.8
8.739,71.0
8.74,71.0
8.741,70.8
8.742,71.0
8.743,71.2
8.744,71.0
8.745000000000001,71.0
8.746,71.2
8.747,71.0
8.748,71.4
8.749,71.2
8.75,71.2
8.751,71.2
8.752,71.4
8.753,71.4
8.754,71.4
8.755,71.4
8.756,71.4
8.757,71.4
8.758000000000001,71.6
8.759,71.4
8.76,71.6
8.761000000000001,71.6
8.762,71.6
8.763,71.8
8.764,71.8
8.765,72.0
8.766,72.0
8.767,71.8
8.768,71.8
8.769,72.0
8.77,71.8
8.771,72.0
8.772,71.8
8.773,72.0
8.774000000000001,71.8
8.775,71.8
8.776,72.2
8.777000000000001,72.2
8.778,72.2
8.779,72.0
8.78,72.2
8.781,72.4
8.782,72.4
8.783,72.4
8.784,72.4
8.785,72.2
8.786,72.2
8.787,72.2
8.788,72.2
8.789,72.4
8.790000000000001,72.6
8.791,72.6
8.792,72.2
8.793000000000001,72.4
8.794,72.4
8.795,72.6
8.796,72.6
8.797,72.6
8.798,72.4
8.799,72.4
8.8,72.4
8.801,72.6
8.802,72.6
8.803,72.6
8.804,72.8
8.805,72.6
8.806000000000001,72.6
8.807,72.4
8.808,72.8
8.809000000000001,72.8
8.81,72.8
8.811,72.8
8.812,72.8
8.813,72.6
8.814,72.6
8.815,73.0
8.816,72.8
8.817,72.8
8.818,72.8
8.819,73.0
8.82,72.6
8.821,72.8
8.822000000000001,73.0
8.823,73.0
8.824,72.6
8.825000000000001,72.8
8.826,72.6
8.827,72.8
8.828,72.8
8.829,73.0
8.83,73.0
8.831,72.8
8.832,73.0
8.833,72.6
8.834,72.8
8.835,73.0
8.836,73.0
8.837,72.8
8.838000000000001,72.8
8.839,73.0
8.84,72.8
8.841,72.8
8.842,72.8
8.843,73.0
8.844,72.8
8.845,72.8
8.846,72.8
8.847,72.8
8.848,72.6
8.849,72.8
8.85,72.6
8.851,72.8
8.852,72.6
8.853,72.8
8.854000000000001,72.6
8.855,72.8
8.856,72.8
8.857,72.6
8.858,72.6
8.859,72.6
8.86,72.8
8.861,72.6
8.862,72.6
8.863,72.4
8.864,72.6
8.865,72.6
8.866,72.4
8.867,72.4
8.868,72.4
8.869,72.4
8.870000000000001,72.8
8.871,72.4
8.872,72.4
8.873,72.2
8.874,72.4
8.875,72.4
8.876,72.2
8.877,72.4
8.878,72.2
8.879,72.2
8.88,72.2
8.881,72.4
8.882,72.2
8.883000000000001,72.0
8.884,72.2
8.885,72.2
8.886000000000001,72.0
8.887,72.0
8.888,72.2
8.889,72.2
8.89,72.0
8.891,71.8
8.892,71.8
8.893,72.0
8.894,72.0
8.895,72.0
8.896,71.8
8.897,71.8
8.898,71.8
8.899000000000001,71.8
8.9,72.0
8.901,71.6
8.902000000000001,71.6
8.903,71.6
8.904,71.4
8.905,71.6
8.906,71.4
8.907,71.6
8.908,71.6
8.909,71.6
8.91,71.6
8.911,71.4
8.912,71.4
8.913,71.2
8.914,71.2
8.915000000000001,71.0
8.916,71.2
8.917,71.2
8.918000000000001,71.2
8.919,70.8
8.92,71.0
8.921,71.0
8.922,70.8
8.923,70.8
8.924,70.8
8.925,70.8
8.926,70.8
8.927,70.8
8.928,70.8
8.929,70.6
8.93,70.6
8.931000000000001,70.8
8.932,70.6
8.933,70.4
8.934000000000001,70.4
8.935,70.6
8.936,70.4
8.937,70.4
8.938,70.6
8.939,70.2
8.94,70.4
8.941,70.4
8.942,70.2
8.943,70.4
8.944,70.2
8.945,70.4
8.946,70.0
8.947000000000001,69.8
8.948,70.0
8.949,69.6
8.950000000000001,69.8
8.951,69.8
8.952,69.8
8.953,69.8
8.954,69.6
8.955,69.4
8.956,69.4
8.957,69.2
8.958,69.4
8.959,69.2
8.96,69.2
8.961,69.2
8.962,69.0
8.963000000000001,69.2
8.964,69.2
8.965,69.2
8.966,69.0
8.967,69.0
8.968,68.8
8.969,69.0
8.97,68.8
8.971,68.8
8.972,68.8
8.973,68.8
8.974,68.6
8.975,68.6
8.976,68.6
8.977,68.6
8.978,68.4
8.979000000000001,68.2
8.98,68.4
8.981,68.4
8.982,68.4
8.983,68.2
8.984,68.2
8.985,68.0
8.986,68.0
8.987,67.8
8.988,68.0
8.989,68.0
8.99,67.8
8.991,67.8
8.992,67.8
8.993,67.8
8.994,67.8
8.995000000000001,67.8
8.996,67.6
8.997,67.6
8.998,67.6
8.999,67.4
9.0,67.4
9.001,67.4
9.002,67.2
9.003,67.2
9.004,67.2
9.005,67.2
9.006,67.2
9.007,67.2
9.008000000000001,67.0
9.009,66.8
9.01,67.0
9.011000000000001,66.8
9.012,66.8
9.013,66.8
9.014,66.8
9.015,66.8
9.016,66.8
9.017,66.4
9.018,66.6
9.019,66.6
9.02,66.6
9.021,66.6
9.022,66.2
9.023,66.4
9.024000000000001,66.2
9.025,66.2
9.026,66.2
9.027000000000001,66.2
9.028,66.2
9.029,66.4
9.03,66.2
9.031,66.0
9.032,66.0
9.033,65.8
9.034,66.0
9.035,65.8
9.036,65.8
9.037,65.8
9.038,65.6
9.039,65.8
9.040000000000001,65.8
9.041,65.6
9.042,65.6
9.043000000000001,65.6
9.044,65.6
9.045,65.4
9.046,65.4
9.047,65.2
9.048,65.4
9.049,65.2
9.05,65.2
9.051,65.2
9.052,65.2
9.053,65.0
9.054,65.0
9.055,65.0
9.056000000000001,65.0
9.057,65.0
9.058,65.0
9.059000000000001,65.0
9.06,64.8
9.061,64.8
9.062,64.8
9.063,64.8
9.064,64.6
9.065,64.8
9.066,64.8
9.067,64.6
9.068,64.6
9.069,64.4
9.07,64.6
9.071,64.4
9.072000000000001,64.4
9.073,64.6
9.074,64.8
9.075000000000001,64.6
9.076,64.4
9.077,64.4
9.078,64.4
9.079,64.4
9.08,64.4
9.081,64.2
9.082,64.4
9.083,64.4
9.084,64.4
9.085,64.2
9.086,64.2
9.087,64.4
9.088000000000001,64.2
9.089,64.0
9.09,64.0
9.091,64.0
9.092,64.4
9.093,64.2
9.094,64.0
9.095,64.0
9.096,64.0
9.097,63.8
9.098,64.2
9.099,63.8
9.1,64.0
9.101,64.0
9.102,63.8
9.103,64.0
9.104000000000001,64.0
9.105,64.2
9.106,64.0
9.107,64.0
9.108,64.0
9.109,64.0
9.11,64.0
9.111,63.8
9.112,63.8
9.113,63.8
9.114,63.8
9.115,64.2
9.116,64.0
9.117,64.0
9.118,63.8
9.119,64.0
9.120000000000001,63.8
9.121,63.8
9.122,63.8
9.123,63.8
9.124,63.8
9.125,63.8
9.126,63.8
9.127,64.0
9.128,63.8
9.129,63.8
9.13,63.8
9.131,63.8
9.132,63.6
9.133000000000001,63.8
9.134,63.8
9.135,64.0
9.136000000000001,64.0
9.137,63.6
9.138,64.0
9.139,63.8
9.14,64.0
9.141,64.0
9.142,63.8
9.143,64.0
9.144,64.0
9.145,63.8
9.146,64.0
9.147,63.8
9.148,64.0
9.149000000000001,63.8
9.15,64.0
9.151,64.2
9.152000000000001,64.2
9.153,64.0
9.154,64.0
9.155,64.2
9.156,64.2
9.157,64.0
9.158,64.0
9.159,64.0
9.16,63.8
9.161,64.2
9.162,64.2
9.163,64.0
9.164,64.0
9.165000000000001,64.2
9.166,64.2
9.167,64.2
9.168000000000001,64.2
9.169,64.0
9.17,64.0
9.171,64.0
9.172,64.2
9.173,64.4
9.174,64.4
9.175,64.2
9.176,64.4
9.177,64.2
9.178,64.4
9.179,64.4
9.18,64.2
9.181000000000001,64.4
9.182,64.2
9.183,64.4
9.184000000000001,64.2
9.185,64.4
9.186,64.6
9.187,64.6
9.188,64.2
9.189,64.4
9.19,64.4
9.191,64.4
9.192,64.6
9.193,64.6
9.194,64.6
9.195,64.4
9.196,64.6
9.197000000000001,64.6
9.198,64.6
9.199,64.4
9.200000000000001,64.8
9.201,64.8
9.202,64.6
9.203,64.6
9.204,64.8
9.205,64.8
9.206,65.0
9.207,65.0
9.208,65.0
9.209,65.0
9.21,65.0
9.211,64.8
9.212,64.8
9.213000000000001,65.2
9.214,65.2
9.215,65.2
9.216000000000001,65.0
9.217,65.0
9.218,65.2
9.219,65.2
9.22,65.0
9.221,65.4
9.222,65.2
9.223,65.2
9.224,65.4
9.225,65.4
9.226,65.2
9.227,65.8
9.228,65.4
9.229000000000001,65.2
9.23,65.6
9.231,65.6
9.232,65.8
9.233,65.4
9.234,65.8
9.235,65.8
9.236,65.6
9.237,65.8
9.238,65.8
9.239,65.8
9.24,66.2
9.241,66.0
9.242,66.0
9.243,66.0
9.244,66.0
9.245000000000001,66.2
9.246,66.0
9.247,66.2
9.248,66.2
9.249,66.2
9.25,66.4
9.251,66.4
9.252,66.4
9.253,66.4
9.254,66.4
9.255,66.8
9.256,66.4
9.257,66.4
9.258000000000001,66.6
9.259,66.8
9.26,66.8
9.261000000000001,66.8
9.262,66.6
9.263,66.8
9.264,66.8
9.265,66.8
9.266,67.0
9.267,66.8
9.268,67.0
9.269,67.2
9.27,67.2
9.271,67.0
9.272,67.2
9.273,67.4
9.274000000000001,67.4
9.275,67.2
9.276,67.2
9.277000000000001,67.4
9.278,67.4
9.279,67.6
9.28,67.6
9.281,67.8
9.282,67.4
9.283,67.6
9.284,67.8
9.285,67.8
9.286,67.8
9.287,67.8
9.288,68.0
9.289,68.0
9.290000000000001,68.0
9.291,68.2
9.292,68.2
9.293000000000001,68.2
9.294,68.2
9.295,68.4
9.296,68.4
9.297,68.4
9.298,68.4
9.299,68.6
9.3,68.4
9.301,68.8
9.302,68.8
9.303,68.8
9.304,68.8
9.305,68.6
9.306000000000001,68.8
9.307,68.8
9.308,69.0
9.309000000000001,69.0
9.31,69.0
9.311,68.8
9.312,69.0
9.313,69.0
9.314,69.2
9.315,69.2
9.316,69.2
9.317,69.4
9.318,69.4
9.319,69.4
9.32,69.4
9.321,69.4
9.322000000000001,69.6
9.323,69.8
9.324,69.8
9.325000000000001,69.6
9.326,69.8
9.327,70.0
9.328,69.8
9.329,70.0
9.33,69.8
9.331,70.0
9.332,70.2
9.333,70.0
9.334,70.0
9.335,70.0
9.336,70.4
9.337,70.4
9.338000000000001,70.2
9.339,70.4
9.34,70.4
9.341000000000001,70.6
9.342,70.4
9.343,70.2
9.344,70.6
9.345,70.6
9.346,70.8
9.347,70.6
9.348,70.8
9.349,70.8
9.35,70.8
9.351,70.8
9.352,71.0
9.353,71.0
9.354000000000001,71.0
9.355,71.0
9.356,71.0
9.357,70.8
9.358,70.8
9.359,71.2
9.36,71.2
9.361,71.2
9.362,71.2
9.363,71.4
9.364,71.4
9.365,71.4
9.366,71.2
9.367,71.4
9.368,71.4
9.369,71.4
9.370000000000001,71.6
9.371,71.6
9.372,71.6
9.373,71.6
9.374,71.6
9.375,71.6
9.376,71.8
9.377,71.6
9.378,71.8
9.379,72.0
9.38,71.8
9.381,71.8
9.382,71.8
9.383000000000001,72.0
9.384,72.0
9.385,72.0
9.386000000000001,72.0
9.387,71.8
9.388,72.0
9.389,72.2
9.39,72.2
9.391,72.2
9.392,72.2
9.393,72.2
9.394,72.2
9.395,72.2
9.396,72.2
9.397,72.2
9.398,72.4
9.399000000000001,72.2
9.4,72.2
9.401,72.4
9.402000000000001,72.4
9.403,72.4
9.404,72.4
9.405,72.4
9.406,72.6
9.407,72.4
9.408,72.2
9.409,72.6
9.41,72.4
9.411,72.6
9.412,72.6
9.413,72.6
9.414,72.4
9.415000000000001,72.4
9.416,72.8
9.417,72.8
9.418000000000001,72.4
9.419,72.8
9.42,72.6
9.421,72.6
9.422,72.6
9.423,72.6
9.424,72.6
9.425,72.8
9.426,72.8
9.427,72.6
9.428,72.6
9.429,72.8
9.43,73.0
9.431000000000001,73.0
9.432,72.8
9.433,72.8
9.434000000000001,72.6
9.435,73.0
9.436,72.8
9.437,73.0
9.438,72.8
9.439,73.0
9.44,73.0
9.441,73.0
9.442,72.8
9.443,72.8
9.444,72.8
9.445,73.0
9.446,72.8
9.447000000000001,72.8
9.448,72.8
9.449,72.8
9.450000000000001,72.8
9.451,72.8
9.452,73.0
9.453,73.0
9.454,72.8
9.455,72.6
9.456,72.6
9.457,72.6
9.458,72.8
9.459,72.8
9.46,72.6
9.461,72.6
9.462,72.6
9.463000000000001,72.8
9.464,72.8
9.465,72.6
9.466000000000001,72.6
9.467,72.6
9.468,72.6
9.469,72.8
9.47,72.8
9.471,72.8
9.472,72.4
9.473,72.6
9.474,72.8
9.475,72.6
9.476,72.6
9.477,72.6
9.478,72.6
9.479000000000001,72.4
9.48,72.4
9.481,72.4
9.482,72.6
9.483,72.4
9.484,72.4
9.485,72.4
9.486,72.2
9.487,72.4
9.488,72.4
9.489,72.4
9.49,72.4
9.491,72.2
9.492,72.2
9.493,72.2
9.494,72.2
9.495000000000001,72.2
9.496,72.2
9.497,72.4
9.498,72.2
9.499,72.0
9.5,72.0
9.501,72.0
9.502,72.0
9.503,72.0
9.504,72.0
9.505,72.0
9.506,72.0
9.507,71.8
9.508000000000001,72.0
9.509,71.8
9.51,72.0
9.511000000000001,71.6
9.512,72.0
9.513,71.4
9.514,71.6
9.515,71.8
9.516,71.6
9.517,71.6
9.518,71.6
9.519,71.4
9.52,71.4
9.521,71.6
9.522,71.4
9.523,71.4
9.524000000000001,71.4
9.525,71.4
9.526,71.2
9.527000000000001,71.2
9.528,71.2
9.529,71.2
9.53,71.2
9.531,71.2
9.532,71.2
9.533,71.2
9.534,71.0
9.535,71.2
9.536,70.8
9.537,70.8
9.538,71.2
9.539,70.8
9.540000000000001,70.8
9.541,70.6
9.542,70.8
9.543000000000001,70.6
9.544,70.8
9.545,70.6
9.546,70.6
9.547,70.6
9.548,70.6
9.549,70.2
9.55,70.4
9.551,70.4
9.552,70.4
9.553,70.4
9.554,70.2
9.555,70.2
9.556000000000001,70.2
9.557,70.4
9.558,70.2
9.559000000000001,70.0
9.56,70.0
9.561,70.0
9.562,70.0
9.563,69.8
9.564,69.8
9.565,69.6
9.566,69.6
9.567,69.6
9.568,69.8
9.569,69.4
9.57,69.4
9.571,69.4
9.572000000000001,69.4
9.573,69.2
9.574,69.2
9.575000000000001,69.4
9.576,69.2
9.577,69.0
9.578,69.0
9.579,69.0
9.58,69.0
9.581,68.8
9.582,69.0
9.583,68.8
9.584,68.8
9.585,68.8
9.586,68.6
9.587,68.6
9.588000000000001,68.4
9.589,68.6
9.59,68.4
9.591000000000001,68.4
9.592,68.4
9.593,68.2
9.594,68.4
9.595,68.2
9.596,68.2
9.597,68.2
9.598,68.2
9.599,68.0
9.6,68.0
9.601,68.0
9.602,67.8
9.603,68.0
9.604000000000001,68.0
9.605,68.0
9.606,67.6
9.607,67.8
9.608,67.8
9.609,67.6
9.61,67.6
9.611,67.6
9.612,67.4
9.613,67.4
9.614,67.4
9.615,67.2
9.616,67.2
9.617,67.2
9.618,67.2
9.619,67.2
9.620000000000001,67.0
9.621,67.0
9.622,67.0
9.623,67.0
9.624,67.0
9.625,66.8
9.626,66.8
9.627,66.8
9.628,66.8
9.629,66.6
9.63,66.6
9.631,66.6
9.632,66.6
9.633000000000001,66.4
9.634,66.4
9.635,66.4
9.636000000000001,66.4
9.637,66.4
9.638,66.4
9.639,66.4
9.64,66.0
9.641,66.0
9.642,66.0
9.643,66.2
9.644,66.0
9.645,66.0
9.646,66.0
9.647,65.8
9.648,65.8
9.649000000000001,66.0
9.65,66.0
9.651,65.8
9.652000000000001,65.6
9.653,65.6
9.654,65.6
9.655,65.6
9.656,65.8
9.657,65.4
9.658,65.2
9.659,65.4
9.66,65.4
9.661,65.4
9.662,65.4
9.663,65.0
9.664,65.2
9.665000000000001,65.0
9.666,65.0
9.667,65.2
9.668000000000001,65.0
9.669,65.0
9.67,64.8
9.671,65.0
9.672,65.0
9.673,65.0
9.674,64.8
9.675,64.6
9.676,65.0
9.677,64.8
9.678,64.8
9.679,64.6
9.68,64.6
9.681000000000001,64.6
9.682,64.6
9.683,64.6
9.684000000000001,64.4
9.685,64.6
9.686,64.6
9.687,64.6
9.688,64.4
9.689,64.4
9.69,64.4
9.691,64.4
9.692,64.4
9.693,64.2
9.694,64.2
9.695,64.4
9.696,64.2
9.697000000000001,64.2
9.698,64.2
9.699,64.4
9.700000000000001,64.4
9.701,64.4
9.702,64.4
9.703,64.2
9.704,64.2
9.705,64.0
9.706,64.0
9.707,64.0
9.708,64.2
9.709,64.2
9.71,64.2
9.711,64.0
9.712,64.0
9.713000000000001,64.2
9.714,64.0
9.715,64.0
9.716000000000001,64.0
9.717,64.0
9.718,64.0
9.719,64.0
9.72,64.0
9.721,64.0
9.722,64.0
9.723,63.8
9.724,63.8
9.725,64.0
9.726,63.8
9.727,63.8
9.728,63.8
9.729000000000001,63.8
9.73,64.2
9.731,63.8
9.732,64.0
9.733,63.8
9.734,63.8
9.735,63.8
9.736,63.8
9.737,63.8
9.738,64.2
9.739,63.8
9.74,63.8
9.741,63.8
9.742,63.8
9.743,63.8
9.744,63.8
9.745000000000001,63.8
9.746,63.8
9.747,63.8
9.748,63.8
9.749,63.8
9.75,64.0
9.751,63.8
9.752,63.8
9.753,63.8
9.754,64.0
9.755,63.8
9.756,64.0
9.757,63.6
9.758000000000001,63.8
9.759,63.8
9.76,64.0
9.761000000000001,63.8
9.762,64.0
9.763,63.8
9.764,63.6
9.765,63.8
9.766,64.0
9.767,64.0
9.768,64.0
9.769,63.8
9.77,64.0
9.771,64.0
9.772,64.0
9.773,64.2
9.774000000000001,64.0
9.775,64.2
9.776,64.0
9.777000000000001,64.0
9.778,63.8
9.779,64.2
9.78,64.2
9.781,64.2
9.782,64.0
9.783,64.0
9.784,64.2
9.785,64.2
9.786,64.2
9.787,64.2
9.788,64.2
9.789,64.2
9.790000000000001,64.2
9.791,64.4
9.792,64.2
9.793000000000001,64.0
9.794,64.6
9.795,64.2
9.796,64.2
9.797,64.2
9.798,64.4
9.799,64.4
9.8,64.2
9.801,64.6
9.802,64.4
9.803,64.6
9.804,64.4
9.805,64.6
9.806000000000001,64.4
9.807,64.6
9.808,64.8
9.809000000000001,64.6
9.81,64.6
9.811,64.6
9.812,64.6
9.813,64.6
9.814,64.6
9.815,64.8
9.816,64.6
9.817,64.8
9.818,64.8
9.819,65.0
9.82,64.8
9.821,65.0
9.822000000000001,64.8
9.823,64.8
9.824,64.8
9.825000000000001,65.0
9.826,65.0
9.827,64.8
9.828,65.2
9.829,65.2
9.83,65.2
9.831,65.2
9.832,65.2
9.833,65.2
9.834,65.2
9.835,65.2
9.836,65.4
9.837,65.4
9.838000000000001,65.2
9.839,65.4
9.84,65.2
9.841000000000001,65.4
9.842,65.4
9.843,65.6
9.844,65.8
9.845,65.8
9.846,65.6
9.847,66.0
9.848,65.8
9.849,65.8
9.85,65.8
9.851,65.8
9.852,65.8
9.853,66.0
9.854000000000001,66.0
9.855,66.0
9.856,65.8
9.857,66.0
9.858,66.0
9.859,66.2
9.86,66.2
9.861,66.2
9.862,66.2
9.863,66.2
9.864,66.4
9.865,66.2
9.866,66.4
9.867,66.4
9.868,66.4
9.869,66.4
9.870000000000001,66.6
9.871,66.6
9.872,66.6
9.873,66.4
9.874,66.6
9.875,66.8
9.876,66.8
9.877,66.6
9.878,67.0
9.879,66.8
9.88,67.0
9.881,66.8
9.882,67.0
9.883000000000001,67.2
9.884,67.2
9.885,67.2
9.886000000000001,67.2
9.887,67.2
9.888,67.4
9.889,67.2
9.89,67.4
9.891,67.6
9.892,67.4
9.893,67.6
9.894,67.6
9.895,67.8
9.896,67.6
9.897,67.8
9.898,68.0
9.899000000000001,68.0
9.9,68.0
9.901,68.0
9.902000000000001,68.0
9.903,67.8
9.904,68.0
9.905,68.0
9.906,68.2
9.907,68.2
9.908,68.2
9.909,68.2
9.91,68.2
9.911,68.6
9.912,68.4
9.913,68.6
9.914,68.4
9.915000000000001,68.4
9.916,68.6
9.917,68.6
9.918000000000001,68.8
9.919,68.6
9.92,69.0
9.921,69.0
9.922,68.8
9.923,68.8
9.924,69.0
9.925,69.2
9.926,69.2
9.927,69.2
9.928,69.4
9.929,69.4
9.93,69.4
9.931000000000001,69.4
9.932,69.4
9.933,69.2
9.934000000000001,69.4
9.935,69.4
9.936,69.8
9.937,69.4
9.938,69.6
9.939,69.8
9.94,69.8
9.941,69.8
9.942,70.0
9.943,70.0
9.944,70.0
9.945,70.0
9.946,70.2
9.947000000000001,70.4
9.948,70.0
9.949,70.4
9.950000000000001,70.4
9.951,70.4
9.952,70.2
9.953,70.4
9.954,70.4
9.955,70.4
9.956,70.4
9.957,70.4
9.958,70.4
9.959,70.8
9.96,70.4
9.961,70.6
9.962,70.6
9.963000000000001,70.6
9.964,71.0
9.965,70.8
9.966000000000001,71.0
9.967,70.8
9.968,71.0
9.969,71.2
9.97,71.0
9.971,71.2
9.972,71.0
9.973,71.4
9.974,71.0
9.975,71.2
9.976,71.0
9.977,71.4
9.978,71.4
9.979000000000001,71.2
9.98,71.2
9.981,71.4
9.982000000000001,71.4
9.983,71.6
9.984,71.4
9.985,71.4
9.986,71.6
9.987,71.6
9.988,71.6
9.989,71.6
9.99,71.6
9.991,71.6
9.992,72.0
9.993,71.6
9.994,71.8
9.995000000000001,71.8
9.996,72.0
9.997,72.0
9.998,72.0
9.999,72.0
