####### Preamble ##########################
#	byt_nr=1
#	bit_nr=8
#	encdg=BIN
#	bn_fmt=RI
#	byt_or=MSB
#	nr_pt=10000
#	wfid="Ch1, DC coupling, 5.0E0 V/div, 1.0E0 s/div, 10000 points, Sample mode"
#	pt_fmt=Y
#	xincr=1.0E-3
#	pt_off=0
#	xzero=-5.0E0
#	xunit="s"
#	ymult=2.0E-1
#	yzero=0.0E0
#	yoff=5.7E1
#	yunit="V"
#######  Cursor ##########################
#VBA;IND;"s";-3.68E0;-4.02E0;8.7E0;3.4E-1;CURSOR1;-4.6E0;4.1E0;-1.26E1;-2.1E1;8.4E0;CURSOR1;"V";CURSOR1;CURSOR1X;-3.24E1;-2.08E1;9.6E0;4.32E1;RECT;0.0E0;0.0E0;0.0E0;0.0E0;0.0E0;0.0E0;9.9E37;9.9E37;9.9E37;9.9E37;9.9E37;9.9E37;9.9E37;9.9E37;9.9E37;9.9E37;9.9E37;9.9E37
#######  Data ##########################
#RIB;REF1;CH1;1;10000;1
# Delete the above lines to open in excel ######

Time [s],volts [V]
0.0,64.0
0.001,67.6
0.002,66.8
0.003,66.6
0.004,66.6
0.005,66.6
0.006,66.6
0.007,64.6
0.008,64.8
0.009000000000000001,64.6
0.01,64.8
0.011,64.8
0.012,64.8
0.013000000000000001,64.8
0.014,64.6
0.015,64.8
0.016,64.6
0.017,64.8
0.018000000000000002,64.8
0.019,65.0
0.02,65.0
0.021,65.0
0.022,64.6
0.023,65.0
0.024,65.0
0.025,65.2
0.026000000000000002,65.2
0.027,65.2
0.028,65.0
0.029,65.2
0.03,65.2
0.031,65.2
0.032,65.2
0.033,65.2
0.034,65.4
0.035,65.4
0.036000000000000004,65.4
0.037,65.2
0.038,65.4
0.039,65.4
0.04,65.6
0.041,65.6
0.042,65.6
0.043000000000000003,65.8
0.044,65.4
0.045,65.8
0.046,65.6
0.047,65.8
0.048,65.8
0.049,66.0
0.05,65.6
0.051000000000000004,65.8
0.052000000000000005,66.0
0.053,66.0
0.054,65.8
0.055,66.2
0.056,66.0
0.057,66.0
0.058,66.2
0.059000000000000004,66.4
0.06,66.2
0.061,66.2
0.062,66.4
0.063,66.4
0.064,66.2
0.065,66.4
0.066,66.4
0.067,66.4
0.068,66.6
0.069,66.8
0.07,66.6
0.07100000000000001,66.8
0.07200000000000001,66.8
0.073,66.6
0.074,66.8
0.075,66.8
0.076,66.8
0.077,66.8
0.078,66.8
0.079,67.0
0.08,66.8
0.081,67.2
0.082,67.2
0.083,67.2
0.084,67.2
0.085,67.4
0.08600000000000001,67.4
0.08700000000000001,67.4
0.088,67.4
0.089,67.4
0.09,67.6
0.091,67.6
0.092,67.4
0.093,67.6
0.094,67.8
0.095,67.8
0.096,67.8
0.097,68.0
0.098,68.0
0.099,67.8
0.1,68.0
0.101,67.8
0.10200000000000001,68.0
0.10300000000000001,68.0
0.10400000000000001,68.0
0.105,68.2
0.106,68.4
0.107,68.4
0.108,68.6
0.109,68.4
0.11,68.4
0.111,68.6
0.112,68.6
0.113,68.8
0.114,68.8
0.115,68.6
0.116,68.8
0.117,68.8
0.11800000000000001,68.8
0.11900000000000001,69.0
0.12,69.0
0.121,68.8
0.122,69.2
0.123,69.2
0.124,69.2
0.125,69.2
0.126,69.2
0.127,69.4
0.128,69.4
0.129,69.4
0.13,69.6
0.131,69.4
0.132,69.4
0.133,69.6
0.134,69.4
0.135,69.6
0.136,69.6
0.137,69.8
0.138,70.0
0.139,70.0
0.14,70.0
0.14100000000000001,70.0
0.14200000000000002,70.0
0.14300000000000002,70.0
0.14400000000000002,70.0
0.145,69.8
0.146,70.4
0.147,70.2
0.148,70.4
0.149,70.2
0.15,70.2
0.151,70.4
0.152,70.4
0.153,70.6
0.154,70.6
0.155,70.6
0.156,70.4
0.157,70.8
0.158,70.8
0.159,70.6
0.16,70.8
0.161,70.8
0.162,70.6
0.163,70.8
0.164,70.8
0.165,71.0
0.166,70.8
0.167,71.2
0.168,71.2
0.169,71.0
0.17,71.2
0.171,71.0
0.17200000000000001,71.2
0.17300000000000001,71.2
0.17400000000000002,71.4
0.17500000000000002,71.2
0.176,71.4
0.177,71.2
0.178,71.4
0.179,71.4
0.18,71.4
0.181,71.6
0.182,71.6
0.183,71.6
0.184,71.6
0.185,71.6
0.186,71.6
0.187,72.0
0.188,72.0
0.189,71.8
0.19,71.8
0.191,71.8
0.192,71.8
0.193,72.0
0.194,72.0
0.195,72.0
0.196,71.8
0.197,72.0
0.198,72.0
0.199,72.0
0.2,72.0
0.201,72.0
0.202,72.0
0.203,72.0
0.20400000000000001,72.2
0.20500000000000002,72.4
0.20600000000000002,72.4
0.20700000000000002,72.0
0.20800000000000002,72.4
0.209,72.4
0.21,72.2
0.211,72.4
0.212,72.2
0.213,72.4
0.214,72.4
0.215,72.4
0.216,72.4
0.217,72.4
0.218,72.4
0.219,72.4
0.22,72.4
0.221,72.4
0.222,72.4
0.223,72.6
0.224,72.6
0.225,72.6
0.226,72.4
0.227,72.6
0.228,72.6
0.229,72.6
0.23,72.6
0.231,72.4
0.232,72.6
0.233,72.6
0.234,72.6
0.23500000000000001,72.4
0.23600000000000002,72.8
0.23700000000000002,72.8
0.23800000000000002,73.0
0.23900000000000002,72.6
0.24,72.8
0.241,73.0
0.242,72.8
0.243,72.8
0.244,72.6
0.245,72.8
0.246,73.0
0.247,72.8
0.248,72.8
0.249,73.0
0.25,73.0
0.251,72.8
0.252,72.8
0.253,72.8
0.254,72.8
0.255,72.8
0.256,72.8
0.257,72.8
0.258,72.8
0.259,72.8
0.26,73.0
0.261,72.8
0.262,72.8
0.263,72.8
0.264,72.8
0.265,72.8
0.266,72.8
0.267,72.8
0.268,72.8
0.269,73.0
0.27,72.8
0.271,72.6
0.272,72.8
0.273,72.8
0.274,72.8
0.275,72.6
0.276,72.4
0.277,72.8
0.278,72.6
0.279,72.6
0.28,72.4
0.281,72.8
0.28200000000000003,72.6
0.28300000000000003,72.6
0.28400000000000003,72.6
0.28500000000000003,72.6
0.28600000000000003,72.6
0.28700000000000003,72.6
0.28800000000000003,72.6
0.289,72.4
0.29,72.6
0.291,72.2
0.292,72.6
0.293,72.4
0.294,72.4
0.295,72.4
0.296,72.6
0.297,72.4
0.298,72.6
0.299,72.2
0.3,72.2
0.301,72.2
0.302,72.2
0.303,72.2
0.304,72.4
0.305,72.2
0.306,72.2
0.307,72.2
0.308,72.0
0.309,72.2
0.31,72.2
0.311,72.0
0.312,72.0
0.313,71.8
0.314,71.8
0.315,71.8
0.316,72.2
0.317,72.0
0.318,72.0
0.319,71.8
0.32,71.8
0.321,71.8
0.322,72.0
0.323,71.6
0.324,71.8
0.325,71.6
0.326,71.8
0.327,71.6
0.328,71.6
0.329,71.4
0.33,71.4
0.331,71.6
0.332,71.4
0.333,71.4
0.334,71.2
0.335,71.4
0.336,71.4
0.337,71.4
0.338,71.2
0.339,71.2
0.34,71.4
0.341,70.8
0.342,71.2
0.343,71.0
0.34400000000000003,71.0
0.34500000000000003,71.2
0.34600000000000003,71.0
0.34700000000000003,70.8
0.34800000000000003,70.8
0.34900000000000003,71.0
0.35000000000000003,70.8
0.35100000000000003,70.6
0.352,70.8
0.353,70.6
0.354,70.6
0.355,70.6
0.356,70.6
0.357,70.4
0.358,70.6
0.359,70.6
0.36,70.4
0.361,70.4
0.362,70.2
0.363,70.6
0.364,70.2
0.365,70.2
0.366,70.4
0.367,70.0
0.368,70.0
0.369,70.0
0.37,69.8
0.371,70.0
0.372,70.0
0.373,70.0
0.374,69.8
0.375,69.6
0.376,69.8
0.377,69.6
0.378,69.6
0.379,69.8
0.38,69.4
0.381,69.4
0.382,69.4
0.383,69.2
0.384,69.2
0.385,69.2
0.386,69.2
0.387,69.2
0.388,69.0
0.389,68.8
0.39,69.0
0.391,69.0
0.392,69.0
0.393,69.0
0.394,68.8
0.395,68.8
0.396,68.6
0.397,68.6
0.398,68.6
0.399,68.8
0.4,68.6
0.401,68.4
0.402,68.4
0.403,68.4
0.404,68.2
0.405,68.2
0.406,68.2
0.40700000000000003,68.2
0.40800000000000003,68.2
0.40900000000000003,68.2
0.41000000000000003,68.0
0.41100000000000003,68.0
0.41200000000000003,67.8
0.41300000000000003,67.8
0.41400000000000003,67.8
0.41500000000000004,67.8
0.41600000000000004,67.8
0.417,67.8
0.418,67.6
0.419,67.6
0.42,67.4
0.421,67.4
0.422,67.6
0.423,67.4
0.424,67.4
0.425,67.2
0.426,67.4
0.427,67.2
0.428,67.0
0.429,67.2
0.43,67.2
0.431,67.2
0.432,67.0
0.433,66.8
0.434,66.8
0.435,66.8
0.436,66.8
0.437,66.6
0.438,66.8
0.439,66.8
0.44,66.6
0.441,66.6
0.442,66.6
0.443,66.4
0.444,66.4
0.445,66.4
0.446,66.2
0.447,66.2
0.448,66.4
0.449,66.2
0.45,66.0
0.451,66.2
0.452,66.0
0.453,66.0
0.454,66.0
0.455,66.2
0.456,66.0
0.457,65.8
0.458,66.0
0.459,65.8
0.46,65.6
0.461,65.8
0.462,65.8
0.463,65.6
0.464,65.6
0.465,65.6
0.466,65.4
0.467,65.4
0.468,65.6
0.46900000000000003,65.2
0.47000000000000003,65.6
0.47100000000000003,65.6
0.47200000000000003,65.4
0.47300000000000003,65.4
0.47400000000000003,65.0
0.47500000000000003,65.2
0.47600000000000003,65.0
0.47700000000000004,65.2
0.47800000000000004,65.2
0.47900000000000004,65.2
0.48,65.0
0.481,65.0
0.482,64.6
0.483,65.0
0.484,65.0
0.485,64.8
0.486,65.0
0.487,64.8
0.488,64.8
0.489,64.8
0.49,64.8
0.491,64.8
0.492,64.4
0.493,64.6
0.494,64.8
0.495,64.6
0.496,64.6
0.497,64.2
0.498,64.4
0.499,64.4
0.5,64.4
0.501,64.4
0.502,64.4
0.503,64.4
0.504,64.4
0.505,64.4
0.506,64.4
0.507,64.2
0.508,64.2
0.509,64.2
0.51,64.2
0.511,64.2
0.512,64.2
0.513,64.2
0.514,64.2
0.515,64.2
0.516,64.2
0.517,64.0
0.518,64.0
0.519,64.0
0.52,64.2
0.521,64.2
0.522,64.2
0.523,64.0
0.524,64.0
0.525,64.0
0.526,64.0
0.527,64.0
0.528,63.8
0.529,64.0
0.53,64.0
0.531,64.0
0.532,64.0
0.533,64.0
0.534,64.0
0.535,64.0
0.536,63.8
0.537,64.0
0.538,64.0
0.539,63.6
0.54,64.0
0.541,63.8
0.542,64.0
0.543,64.0
0.544,63.8
0.545,63.6
0.546,64.0
0.547,64.0
0.548,63.8
0.549,63.8
0.55,63.8
0.551,63.6
0.552,63.8
0.553,63.8
0.554,64.0
0.555,63.8
0.556,64.0
0.557,63.8
0.558,63.6
0.559,63.6
0.56,63.8
0.561,63.8
0.562,63.6
0.5630000000000001,63.8
0.5640000000000001,64.0
0.5650000000000001,63.8
0.5660000000000001,64.0
0.5670000000000001,64.0
0.5680000000000001,63.8
0.5690000000000001,64.0
0.5700000000000001,64.0
0.5710000000000001,63.8
0.5720000000000001,64.0
0.5730000000000001,63.8
0.5740000000000001,63.8
0.5750000000000001,63.8
0.5760000000000001,64.0
0.577,64.0
0.578,64.2
0.579,63.8
0.58,64.0
0.581,64.0
0.582,64.2
0.583,64.2
0.584,64.2
0.585,64.0
0.586,64.0
0.587,64.0
0.588,63.8
0.589,64.2
0.59,64.2
0.591,64.0
0.592,64.2
0.593,64.2
0.594,64.2
0.595,64.2
0.596,64.0
0.597,64.0
0.598,64.2
0.599,64.0
0.6,64.2
0.601,64.2
0.602,64.4
0.603,64.0
0.604,64.2
0.605,64.4
0.606,64.4
0.607,64.4
0.608,64.2
0.609,64.6
0.61,64.4
0.611,64.4
0.612,64.4
0.613,64.6
0.614,64.6
0.615,64.6
0.616,64.4
0.617,64.4
0.618,64.4
0.619,64.6
0.62,64.6
0.621,64.8
0.622,64.6
0.623,64.6
0.624,64.8
0.625,65.0
0.626,64.6
0.627,64.6
0.628,65.0
0.629,64.8
0.63,64.6
0.631,64.8
0.632,64.8
0.633,64.8
0.634,65.2
0.635,65.2
0.636,65.0
0.637,65.0
0.638,65.0
0.639,65.2
0.64,65.2
0.641,65.0
0.642,65.0
0.643,65.2
0.644,65.0
0.645,65.2
0.646,65.2
0.647,65.2
0.648,65.2
0.649,65.4
0.65,65.2
0.651,65.4
0.652,65.4
0.653,65.4
0.654,65.4
0.655,65.8
0.656,65.8
0.657,65.6
0.658,65.6
0.659,65.8
0.66,65.8
0.661,65.8
0.662,66.0
0.663,66.0
0.664,66.0
0.665,66.0
0.666,66.2
0.667,66.0
0.668,66.2
0.669,66.2
0.67,66.0
0.671,66.2
0.672,66.0
0.673,66.2
0.674,66.2
0.675,66.4
0.676,66.2
0.677,66.4
0.678,66.4
0.679,66.4
0.68,66.4
0.681,66.6
0.682,66.4
0.683,66.6
0.684,66.6
0.685,66.4
0.686,66.6
0.687,66.6
0.6880000000000001,66.8
0.6890000000000001,66.8
0.6900000000000001,67.0
0.6910000000000001,67.0
0.6920000000000001,67.2
0.6930000000000001,67.0
0.6940000000000001,67.2
0.6950000000000001,67.2
0.6960000000000001,67.2
0.6970000000000001,67.2
0.6980000000000001,67.2
0.6990000000000001,67.4
0.7000000000000001,67.4
0.7010000000000001,67.6
0.7020000000000001,67.4
0.7030000000000001,67.6
0.704,67.6
0.705,67.6
0.706,67.6
0.707,67.6
0.708,67.8
0.709,67.8
0.71,67.8
0.711,67.8
0.712,68.0
0.713,68.0
0.714,68.0
0.715,68.0
0.716,68.2
0.717,68.2
0.718,68.2
0.719,68.4
0.72,68.4
0.721,68.4
0.722,68.2
0.723,68.4
0.724,68.4
0.725,68.6
0.726,68.8
0.727,68.6
0.728,68.4
0.729,68.8
0.73,68.8
0.731,69.0
0.732,68.8
0.733,69.0
0.734,69.0
0.735,69.2
0.736,69.0
0.737,69.0
0.738,69.2
0.739,69.2
0.74,69.2
0.741,69.4
0.742,69.4
0.743,69.4
0.744,69.4
0.745,69.4
0.746,69.6
0.747,69.4
0.748,69.6
0.749,69.8
0.75,69.8
0.751,70.0
0.752,69.8
0.753,69.8
0.754,70.0
0.755,70.2
0.756,70.0
0.757,70.0
0.758,70.2
0.759,70.4
0.76,70.0
0.761,70.0
0.762,70.4
0.763,70.4
0.764,70.4
0.765,70.4
0.766,70.2
0.767,70.6
0.768,70.6
0.769,70.6
0.77,70.6
0.771,70.6
0.772,70.8
0.773,70.6
0.774,71.0
0.775,70.6
0.776,71.0
0.777,71.0
0.778,71.0
0.779,71.0
0.78,71.2
0.781,71.0
0.782,71.0
0.783,71.2
0.784,71.0
0.785,71.2
0.786,71.0
0.787,71.2
0.788,71.4
0.789,71.2
0.79,71.4
0.791,71.4
0.792,71.4
0.793,71.4
0.794,71.4
0.795,71.4
0.796,71.4
0.797,71.4
0.798,71.8
0.799,71.8
0.8,71.6
0.801,71.6
0.802,71.8
0.803,71.8
0.804,72.0
0.805,72.0
0.806,71.6
0.807,72.0
0.808,72.0
0.809,71.8
0.81,72.0
0.811,72.2
0.812,72.0
0.8130000000000001,72.0
0.8140000000000001,71.8
0.8150000000000001,71.8
0.8160000000000001,72.0
0.8170000000000001,72.2
0.8180000000000001,72.2
0.8190000000000001,72.2
0.8200000000000001,72.2
0.8210000000000001,72.2
0.8220000000000001,72.2
0.8230000000000001,72.2
0.8240000000000001,72.4
0.8250000000000001,72.0
0.8260000000000001,72.4
0.8270000000000001,72.4
0.8280000000000001,72.4
0.8290000000000001,72.4
0.8300000000000001,72.6
0.8310000000000001,72.4
0.8320000000000001,72.4
0.833,72.4
0.834,72.4
0.835,72.6
0.836,72.4
0.837,72.6
0.838,72.6
0.839,72.6
0.84,72.6
0.841,72.6
0.842,72.4
0.843,72.4
0.844,72.8
0.845,72.4
0.846,72.6
0.847,72.8
0.848,72.6
0.849,72.6
0.85,72.6
0.851,72.8
0.852,72.8
0.853,73.0
0.854,72.8
0.855,72.6
0.856,72.6
0.857,72.8
0.858,72.8
0.859,72.8
0.86,72.8
0.861,72.8
0.862,73.0
0.863,72.8
0.864,72.8
0.865,72.8
0.866,72.8
0.867,72.8
0.868,72.8
0.869,72.8
0.87,72.8
0.871,72.8
0.872,72.8
0.873,73.0
0.874,73.0
0.875,72.8
0.876,72.6
0.877,72.8
0.878,72.6
0.879,72.8
0.88,72.8
0.881,72.8
0.882,72.8
0.883,72.8
0.884,72.6
0.885,72.6
0.886,72.8
0.887,72.8
0.888,72.6
0.889,72.8
0.89,72.6
0.891,72.8
0.892,72.8
0.893,72.4
0.894,72.8
0.895,72.4
0.896,72.6
0.897,72.8
0.898,72.6
0.899,72.6
0.9,72.4
0.901,72.6
0.902,72.6
0.903,72.6
0.904,72.6
0.905,72.2
0.906,72.4
0.907,72.6
0.908,72.2
0.909,72.4
0.91,72.4
0.911,72.4
0.912,72.4
0.913,72.2
0.914,72.2
0.915,72.2
0.916,72.4
0.917,72.4
0.918,72.2
0.919,72.2
0.92,72.0
0.921,72.2
0.922,72.2
0.923,72.2
0.924,72.0
0.925,72.4
0.926,72.0
0.927,72.0
0.928,72.0
0.929,72.0
0.93,72.0
0.931,72.0
0.932,72.0
0.933,72.0
0.934,72.0
0.935,71.8
0.936,72.0
0.937,71.6
0.9380000000000001,71.6
0.9390000000000001,71.6
0.9400000000000001,71.6
0.9410000000000001,71.6
0.9420000000000001,71.6
0.9430000000000001,71.8
0.9440000000000001,71.4
0.9450000000000001,71.2
0.9460000000000001,71.4
0.9470000000000001,71.4
0.9480000000000001,71.4
0.9490000000000001,71.2
0.9500000000000001,71.4
0.9510000000000001,71.2
0.9520000000000001,71.4
0.9530000000000001,71.2
0.9540000000000001,70.8
0.9550000000000001,71.0
0.9560000000000001,71.0
0.9570000000000001,71.0
0.9580000000000001,71.0
0.9590000000000001,71.0
0.96,71.0
0.961,70.8
0.962,71.0
0.963,71.0
0.964,70.8
0.965,70.8
0.966,71.0
0.967,70.8
0.968,70.6
0.969,70.4
0.97,70.6
0.971,70.6
0.972,70.6
0.973,70.4
0.974,70.4
0.975,70.4
0.976,70.4
0.977,70.0
0.978,70.4
0.979,70.4
0.98,70.2
0.981,70.4
0.982,70.0
0.983,70.2
0.984,69.8
0.985,70.0
0.986,70.0
0.987,69.6
0.988,69.6
0.989,69.8
0.99,69.8
0.991,69.8
0.992,69.4
0.993,69.4
0.994,69.4
0.995,69.2
0.996,69.4
0.997,69.2
0.998,69.2
0.999,69.4
1.0,69.2
1.0010000000000001,69.0
1.002,69.0
1.0030000000000001,69.0
1.004,69.0
1.0050000000000001,68.8
1.006,69.0
1.0070000000000001,68.8
1.008,68.8
1.0090000000000001,68.8
1.01,68.6
1.0110000000000001,68.8
1.012,68.8
1.0130000000000001,68.6
1.014,68.4
1.0150000000000001,68.6
1.016,68.4
1.0170000000000001,68.4
1.018,68.4
1.0190000000000001,68.2
1.02,68.2
1.0210000000000001,68.2
1.022,68.0
1.0230000000000001,68.2
1.024,68.2
1.025,67.8
1.026,67.8
1.027,67.8
1.028,68.0
1.029,67.8
1.03,67.8
1.031,67.6
1.032,67.6
1.033,67.8
1.034,67.4
1.035,67.6
1.036,67.4
1.037,67.4
1.038,67.4
1.039,67.0
1.04,67.4
1.041,67.2
1.042,67.2
1.043,67.2
1.044,67.0
1.045,67.2
1.046,67.0
1.047,67.0
1.048,66.8
1.049,66.8
1.05,66.8
1.051,66.6
1.052,66.8
1.053,66.4
1.054,66.6
1.055,66.6
1.056,66.4
1.057,66.6
1.058,66.4
1.059,66.4
1.06,66.4
1.061,66.4
1.062,66.4
1.063,66.2
1.064,66.2
1.065,66.2
1.066,66.2
1.067,66.0
1.068,65.8
1.069,66.0
1.07,66.0
1.071,65.8
1.072,65.8
1.073,65.8
1.074,65.8
1.075,65.8
1.076,65.6
1.077,65.8
1.078,65.8
1.079,65.8
1.08,65.6
1.081,65.4
1.082,65.4
1.083,65.2
1.084,65.4
1.085,65.6
1.086,65.2
1.087,65.2
1.088,65.2
1.089,65.4
1.09,65.2
1.091,64.8
1.092,65.0
1.093,64.8
1.094,65.0
1.095,65.2
1.096,65.0
1.097,65.0
1.098,64.8
1.099,64.8
1.1,64.8
1.101,64.8
1.102,64.8
1.103,64.6
1.104,64.8
1.105,64.8
1.106,64.6
1.107,64.4
1.108,64.6
1.109,64.4
1.11,64.6
1.111,64.4
1.112,64.4
1.113,64.2
1.114,64.6
1.115,64.6
1.116,64.4
1.117,64.2
1.118,64.2
1.119,64.2
1.12,64.2
1.121,64.2
1.122,64.0
1.123,64.2
1.124,64.2
1.125,64.2
1.1260000000000001,64.0
1.127,64.4
1.1280000000000001,64.2
1.129,64.2
1.1300000000000001,64.2
1.131,64.2
1.1320000000000001,64.2
1.133,64.0
1.1340000000000001,64.2
1.135,64.0
1.1360000000000001,64.2
1.137,64.0
1.1380000000000001,64.2
1.139,63.8
1.1400000000000001,63.8
1.141,64.0
1.1420000000000001,64.0
1.143,63.8
1.1440000000000001,63.8
1.145,63.8
1.1460000000000001,63.8
1.147,64.2
1.1480000000000001,63.8
1.149,63.8
1.1500000000000001,64.0
1.151,63.8
1.1520000000000001,63.6
1.153,63.8
1.154,63.6
1.155,64.0
1.156,63.8
1.157,64.0
1.158,64.0
1.159,63.8
1.16,63.8
1.161,63.8
1.162,64.0
1.163,63.8
1.164,64.0
1.165,63.8
1.166,64.0
1.167,63.6
1.168,63.8
1.169,63.8
1.17,64.0
1.171,64.0
1.172,64.0
1.173,63.8
1.174,64.0
1.175,63.8
1.176,63.8
1.177,63.8
1.178,63.8
1.179,63.8
1.18,63.8
1.181,63.8
1.182,63.8
1.183,64.2
1.184,63.8
1.185,63.8
1.186,63.6
1.187,63.8
1.188,64.0
1.189,64.0
1.19,63.8
1.191,63.8
1.192,64.0
1.193,64.0
1.194,64.2
1.195,64.2
1.196,64.2
1.197,64.0
1.198,64.2
1.199,64.2
1.2,64.2
1.201,64.2
1.202,64.0
1.203,64.2
1.204,64.0
1.205,64.0
1.206,64.0
1.207,64.2
1.208,64.0
1.209,64.2
1.21,64.0
1.211,64.2
1.212,64.2
1.213,64.2
1.214,64.2
1.215,64.2
1.216,64.2
1.217,64.2
1.218,64.2
1.219,64.4
1.22,64.6
1.221,64.2
1.222,64.4
1.223,64.4
1.224,64.4
1.225,64.4
1.226,64.6
1.227,64.6
1.228,64.6
1.229,64.6
1.23,64.6
1.231,64.4
1.232,64.4
1.233,64.6
1.234,64.4
1.235,64.8
1.236,64.6
1.237,64.8
1.238,64.6
1.239,64.8
1.24,64.8
1.241,64.6
1.242,64.6
1.243,64.8
1.244,64.6
1.245,64.8
1.246,65.0
1.247,64.8
1.248,64.8
1.249,65.2
1.25,65.2
1.2510000000000001,64.8
1.252,65.0
1.2530000000000001,65.0
1.254,65.2
1.2550000000000001,65.2
1.256,65.2
1.2570000000000001,65.4
1.258,65.4
1.2590000000000001,65.2
1.26,65.4
1.2610000000000001,65.4
1.262,65.4
1.2630000000000001,65.6
1.264,65.4
1.2650000000000001,65.4
1.266,65.4
1.2670000000000001,65.6
1.268,65.4
1.2690000000000001,65.8
1.27,65.6
1.2710000000000001,65.8
1.272,65.8
1.2730000000000001,65.8
1.274,65.8
1.2750000000000001,66.0
1.276,66.0
1.2770000000000001,66.0
1.278,66.0
1.2790000000000001,66.0
1.28,66.0
1.281,65.8
1.282,66.0
1.283,66.2
1.284,66.2
1.285,66.2
1.286,66.2
1.287,66.4
1.288,66.4
1.289,66.2
1.29,66.2
1.291,66.2
1.292,66.4
1.293,66.6
1.294,66.6
1.295,66.8
1.296,66.4
1.297,66.6
1.298,66.8
1.299,66.8
1.3,66.6
1.301,66.8
1.302,67.0
1.303,67.0
1.304,67.2
1.305,67.0
1.306,67.0
1.307,67.2
1.308,67.2
1.309,67.2
1.31,67.0
1.311,67.2
1.312,67.4
1.313,67.4
1.314,67.4
1.315,67.4
1.316,67.6
1.317,67.6
1.318,67.6
1.319,67.6
1.32,67.6
1.321,67.8
1.322,67.6
1.323,67.8
1.324,67.8
1.325,68.0
1.326,68.0
1.327,68.0
1.328,68.2
1.329,68.0
1.33,68.2
1.331,68.2
1.332,68.2
1.333,68.4
1.334,68.4
1.335,68.4
1.336,68.2
1.337,68.4
1.338,68.6
1.339,68.6
1.34,68.6
1.341,68.8
1.342,68.8
1.343,68.8
1.344,68.8
1.345,68.8
1.346,69.0
1.347,69.0
1.348,69.2
1.349,69.0
1.35,69.0
1.351,69.2
1.352,69.2
1.353,69.2
1.354,69.4
1.355,69.4
1.356,69.4
1.357,69.4
1.358,69.6
1.359,69.8
1.36,69.6
1.361,69.8
1.362,69.8
1.363,69.8
1.364,69.8
1.365,69.8
1.366,70.0
1.367,69.8
1.368,70.0
1.369,70.0
1.37,70.0
1.371,70.4
1.372,70.2
1.373,70.0
1.374,70.4
1.375,70.4
1.3760000000000001,70.4
1.377,70.4
1.3780000000000001,70.4
1.379,70.4
1.3800000000000001,70.4
1.381,70.8
1.3820000000000001,70.6
1.383,70.6
1.3840000000000001,70.6
1.385,70.8
1.3860000000000001,70.8
1.387,70.8
1.3880000000000001,70.6
1.389,70.6
1.3900000000000001,70.8
1.391,70.8
1.3920000000000001,71.0
1.393,71.0
1.3940000000000001,71.0
1.395,71.0
1.3960000000000001,71.0
1.397,71.0
1.3980000000000001,71.4
1.399,71.2
1.4000000000000001,71.2
1.401,71.4
1.4020000000000001,71.2
1.403,71.4
1.4040000000000001,71.4
1.405,71.4
1.4060000000000001,71.6
1.407,71.6
1.408,71.4
1.409,71.4
1.41,71.6
1.411,72.0
1.412,71.8
1.413,72.0
1.414,71.6
1.415,71.8
1.416,71.8
1.417,72.0
1.418,71.8
1.419,71.6
1.42,72.0
1.421,72.0
1.422,71.8
1.423,71.8
1.424,72.0
1.425,72.0
1.426,72.2
1.427,72.0
1.428,72.2
1.429,72.0
1.43,72.0
1.431,72.2
1.432,72.2
1.433,72.2
1.434,72.2
1.435,72.2
1.436,72.2
1.437,72.2
1.438,72.2
1.439,72.2
1.44,72.2
1.441,72.4
1.442,72.4
1.443,72.4
1.444,72.6
1.445,72.4
1.446,72.4
1.447,72.4
1.448,72.8
1.449,72.4
1.45,72.6
1.451,72.6
1.452,72.6
1.453,72.6
1.454,72.6
1.455,72.8
1.456,72.6
1.457,72.6
1.458,72.8
1.459,72.6
1.46,72.8
1.461,72.8
1.462,73.0
1.463,72.6
1.464,72.6
1.465,72.8
1.466,72.8
1.467,72.8
1.468,72.8
1.469,72.8
1.47,73.0
1.471,72.8
1.472,72.8
1.473,72.8
1.474,72.8
1.475,73.0
1.476,72.8
1.477,72.8
1.478,72.6
1.479,72.8
1.48,73.0
1.481,73.0
1.482,72.8
1.483,72.8
1.484,72.8
1.485,72.8
1.486,72.8
1.487,72.6
1.488,72.8
1.489,72.8
1.49,72.8
1.491,73.0
1.492,72.8
1.493,72.8
1.494,72.8
1.495,73.0
1.496,72.8
1.497,72.8
1.498,72.8
1.499,72.6
1.5,72.8
1.5010000000000001,72.6
1.502,72.6
1.5030000000000001,72.6
1.504,72.6
1.5050000000000001,72.8
1.506,72.8
1.5070000000000001,72.6
1.508,72.4
1.5090000000000001,72.6
1.51,72.6
1.5110000000000001,72.6
1.512,72.6
1.5130000000000001,72.6
1.514,72.6
1.5150000000000001,72.6
1.516,72.6
1.5170000000000001,72.4
1.518,72.4
1.5190000000000001,72.8
1.52,72.4
1.5210000000000001,72.4
1.522,72.4
1.5230000000000001,72.4
1.524,72.4
1.5250000000000001,72.4
1.526,72.4
1.5270000000000001,72.4
1.528,72.2
1.5290000000000001,72.2
1.53,72.2
1.5310000000000001,72.0
1.532,72.2
1.5330000000000001,72.2
1.534,72.2
1.5350000000000001,72.0
1.536,72.0
1.537,72.2
1.538,72.0
1.539,72.0
1.54,72.0
1.541,72.0
1.542,71.8
1.543,72.0
1.544,72.0
1.545,71.8
1.546,71.8
1.547,72.0
1.548,71.8
1.549,71.8
1.55,71.8
1.551,71.6
1.552,71.6
1.553,71.6
1.554,71.8
1.555,71.6
1.556,71.6
1.557,71.4
1.558,71.4
1.559,71.4
1.56,71.6
1.561,71.4
1.562,71.4
1.563,71.2
1.564,71.4
1.565,71.0
1.566,71.2
1.567,71.0
1.568,71.0
1.569,71.2
1.57,71.2
1.571,71.0
1.572,71.0
1.573,71.0
1.574,71.0
1.575,71.0
1.576,70.8
1.577,70.8
1.578,70.8
1.579,70.8
1.58,70.8
1.581,70.6
1.582,70.6
1.583,70.6
1.584,70.4
1.585,70.4
1.586,70.2
1.587,70.4
1.588,70.4
1.589,70.4
1.59,70.4
1.591,70.4
1.592,70.4
1.593,70.0
1.594,70.0
1.595,70.0
1.596,70.2
1.597,70.0
1.598,69.8
1.599,70.0
1.6,69.6
1.601,69.8
1.602,69.6
1.603,69.8
1.604,69.8
1.605,69.6
1.606,69.6
1.607,69.4
1.608,69.4
1.609,69.4
1.61,69.6
1.611,69.4
1.612,69.0
1.613,69.2
1.614,69.2
1.615,69.2
1.616,69.0
1.617,69.0
1.618,69.0
1.619,68.8
1.62,69.0
1.621,68.8
1.622,68.8
1.623,68.8
1.624,68.6
1.625,68.6
1.6260000000000001,68.4
1.627,68.6
1.6280000000000001,68.2
1.629,68.4
1.6300000000000001,68.4
1.631,68.2
1.6320000000000001,68.2
1.633,68.2
1.6340000000000001,68.2
1.635,68.2
1.6360000000000001,68.2
1.637,68.0
1.6380000000000001,68.0
1.639,67.8
1.6400000000000001,67.8
1.641,67.8
1.6420000000000001,67.6
1.643,67.6
1.6440000000000001,67.6
1.645,67.6
1.6460000000000001,67.6
1.647,67.6
1.6480000000000001,67.6
1.649,67.4
1.6500000000000001,67.4
1.651,67.4
1.6520000000000001,67.4
1.653,67.2
1.6540000000000001,67.2
1.655,67.2
1.6560000000000001,67.2
1.657,67.2
1.6580000000000001,67.2
1.659,66.8
1.6600000000000001,67.0
1.661,66.8
1.6620000000000001,66.8
1.663,66.6
1.6640000000000001,66.8
1.665,66.8
1.666,66.6
1.667,66.6
1.668,66.6
1.669,66.6
1.67,66.6
1.671,66.4
1.672,66.4
1.673,66.4
1.674,66.4
1.675,66.2
1.676,66.2
1.677,66.0
1.678,66.2
1.679,66.2
1.68,65.8
1.681,65.8
1.682,66.0
1.683,66.0
1.684,66.0
1.685,65.6
1.686,65.6
1.687,65.6
1.688,65.6
1.689,65.8
1.69,65.8
1.691,65.6
1.692,65.4
1.693,65.8
1.694,65.8
1.695,65.8
1.696,65.4
1.697,65.4
1.698,65.4
1.699,65.2
1.7,65.2
1.701,65.2
1.702,65.2
1.703,65.2
1.704,65.2
1.705,65.0
1.706,64.8
1.707,65.0
1.708,64.8
1.709,65.0
1.71,64.8
1.711,64.8
1.712,64.8
1.713,64.8
1.714,64.8
1.715,64.6
1.716,64.6
1.717,64.6
1.718,64.6
1.719,64.4
1.72,64.6
1.721,64.8
1.722,64.6
1.723,64.6
1.724,64.6
1.725,64.6
1.726,64.6
1.727,64.2
1.728,64.4
1.729,64.4
1.73,64.4
1.731,64.4
1.732,64.4
1.733,64.2
1.734,64.2
1.735,64.2
1.736,64.0
1.737,64.2
1.738,64.2
1.739,64.0
1.74,64.0
1.741,64.2
1.742,64.0
1.743,64.0
1.744,64.2
1.745,64.2
1.746,64.0
1.747,64.0
1.748,64.0
1.749,64.2
1.75,64.0
1.7510000000000001,64.2
1.752,64.2
1.7530000000000001,64.0
1.754,64.2
1.7550000000000001,64.2
1.756,64.2
1.7570000000000001,64.2
1.758,64.0
1.7590000000000001,64.0
1.76,64.0
1.7610000000000001,63.8
1.762,63.8
1.7630000000000001,63.8
1.764,64.2
1.7650000000000001,63.8
1.766,64.0
1.7670000000000001,64.0
1.768,64.0
1.7690000000000001,63.8
1.77,63.8
1.7710000000000001,63.8
1.772,63.8
1.7730000000000001,64.2
1.774,63.8
1.7750000000000001,63.6
1.776,63.8
1.7770000000000001,63.8
1.778,63.8
1.7790000000000001,63.6
1.78,63.8
1.7810000000000001,63.8
1.782,64.0
1.7830000000000001,63.8
1.784,63.6
1.7850000000000001,63.8
1.786,63.6
1.7870000000000001,63.8
1.788,64.0
1.7890000000000001,64.0
1.79,64.0
1.7910000000000001,63.8
1.792,64.0
1.793,63.8
1.794,63.8
1.795,63.8
1.796,63.8
1.797,63.8
1.798,63.6
1.799,64.0
1.8,63.8
1.801,63.8
1.802,63.8
1.803,64.2
1.804,64.0
1.805,64.0
1.806,63.8
1.807,64.2
1.808,64.2
1.809,64.2
1.81,63.6
1.811,64.0
1.812,64.0
1.813,64.2
1.814,64.0
1.815,64.0
1.816,64.0
1.817,64.0
1.818,64.2
1.819,64.0
1.82,64.2
1.821,64.2
1.822,64.2
1.823,64.2
1.824,64.2
1.825,64.2
1.826,64.2
1.827,64.2
1.828,64.2
1.829,64.4
1.83,64.2
1.831,64.4
1.832,64.2
1.833,64.2
1.834,64.4
1.835,64.4
1.836,64.4
1.837,64.6
1.838,64.4
1.839,64.4
1.84,64.6
1.841,64.6
1.842,64.4
1.843,64.6
1.844,64.6
1.845,64.6
1.846,64.6
1.847,64.4
1.848,64.6
1.849,64.6
1.85,64.8
1.851,64.8
1.852,64.6
1.853,64.8
1.854,64.8
1.855,64.8
1.856,64.8
1.857,64.8
1.858,65.0
1.859,65.0
1.86,64.8
1.861,65.0
1.862,65.0
1.863,65.0
1.864,64.8
1.865,65.2
1.866,65.2
1.867,65.2
1.868,65.2
1.869,65.2
1.87,65.2
1.871,65.2
1.872,65.2
1.873,65.2
1.874,65.4
1.875,65.2
1.8760000000000001,65.4
1.877,65.6
1.8780000000000001,65.4
1.879,65.6
1.8800000000000001,65.6
1.881,65.6
1.8820000000000001,65.8
1.883,65.6
1.8840000000000001,65.6
1.885,65.6
1.8860000000000001,65.8
1.887,65.8
1.8880000000000001,66.0
1.889,66.0
1.8900000000000001,65.8
1.891,65.8
1.8920000000000001,66.0
1.893,66.2
1.8940000000000001,66.0
1.895,66.0
1.8960000000000001,66.2
1.897,66.0
1.8980000000000001,66.4
1.899,66.2
1.9000000000000001,66.2
1.901,66.2
1.9020000000000001,66.4
1.903,66.0
1.9040000000000001,66.4
1.905,66.4
1.9060000000000001,66.4
1.907,66.4
1.9080000000000001,66.8
1.909,66.6
1.9100000000000001,66.6
1.911,66.6
1.9120000000000001,66.6
1.913,66.8
1.9140000000000001,66.8
1.915,66.8
1.9160000000000001,66.8
1.917,66.8
1.9180000000000001,67.0
1.919,67.0
1.92,67.0
1.921,67.2
1.922,67.4
1.923,67.2
1.924,67.4
1.925,67.2
1.926,67.2
1.927,67.4
1.928,67.4
1.929,67.6
1.93,67.6
1.931,67.4
1.932,67.8
1.933,67.8
1.934,67.8
1.935,67.8
1.936,67.8
1.937,67.8
1.938,67.8
1.939,68.0
1.94,68.0
1.941,68.0
1.942,68.0
1.943,68.0
1.944,68.2
1.945,68.4
1.946,68.2
1.947,68.4
1.948,68.4
1.949,68.4
1.95,68.6
1.951,68.6
1.952,68.4
1.953,68.8
1.954,68.8
1.955,68.8
1.956,68.8
1.957,68.8
1.958,68.8
1.959,68.8
1.96,69.0
1.961,68.8
1.962,69.2
1.963,69.2
1.964,69.2
1.965,69.4
1.966,69.2
1.967,69.2
1.968,69.2
1.969,69.4
1.97,69.4
1.971,69.4
1.972,69.4
1.973,69.4
1.974,69.4
1.975,69.8
1.976,69.8
1.977,69.8
1.978,69.8
1.979,70.0
1.98,70.0
1.981,70.0
1.982,70.0
1.983,70.0
1.984,70.2
1.985,70.0
1.986,70.2
1.987,70.4
1.988,70.2
1.989,70.2
1.99,70.4
1.991,70.4
1.992,70.6
1.993,70.6
1.994,70.4
1.995,70.8
1.996,70.4
1.997,70.6
1.998,70.4
1.999,70.6
2.0,70.8
2.001,70.8
2.0020000000000002,70.8
2.003,70.6
2.004,70.8
2.005,71.0
2.0060000000000002,71.0
2.007,71.0
2.008,71.0
2.009,71.0
2.0100000000000002,71.0
2.011,71.4
2.012,71.0
2.013,71.2
2.0140000000000002,71.0
2.015,71.2
2.016,71.2
2.017,71.4
2.0180000000000002,71.6
2.019,71.4
2.02,71.4
2.021,71.6
2.0220000000000002,71.6
2.023,71.6
2.024,71.4
2.025,71.6
2.0260000000000002,71.4
2.027,71.6
2.028,71.8
2.029,71.6
2.0300000000000002,71.8
2.031,71.8
2.032,72.0
2.033,71.8
2.0340000000000003,71.8
2.035,72.0
2.036,71.8
2.037,72.0
2.0380000000000003,72.0
2.039,72.2
2.04,71.8
2.041,72.2
2.0420000000000003,72.2
2.043,72.0
2.044,72.2
2.045,72.2
2.0460000000000003,72.2
2.047,72.2
2.048,72.2
2.049,72.2
2.05,72.2
2.051,72.2
2.052,72.4
2.053,72.4
2.054,72.4
2.055,72.6
2.056,72.4
2.057,72.4
2.058,72.4
2.059,72.6
2.06,72.6
2.061,72.8
2.062,72.6
2.063,72.6
2.064,72.6
2.065,72.8
2.066,72.6
2.067,72.8
2.068,72.6
2.069,72.6
2.07,72.6
2.071,72.8
2.072,72.6
2.073,72.6
2.074,72.6
2.075,72.8
2.076,72.6
2.077,72.8
2.078,72.8
2.079,72.8
2.08,73.0
2.081,72.4
2.082,72.8
2.083,72.8
2.084,72.8
2.085,72.8
2.086,73.0
2.087,72.8
2.088,72.6
2.089,72.8
2.09,73.0
2.091,73.0
2.092,73.0
2.093,72.8
2.094,73.0
2.095,72.8
2.096,72.8
2.097,73.0
2.098,73.0
2.099,72.8
2.1,73.0
2.101,72.8
2.102,72.8
2.103,72.8
2.104,72.8
2.105,72.8
2.106,72.8
2.107,72.8
2.108,72.6
2.109,73.0
2.11,72.6
2.111,72.8
2.112,72.6
2.113,72.6
2.114,72.6
2.115,72.6
2.116,72.6
2.117,72.8
2.118,72.6
2.119,72.8
2.12,72.6
2.121,72.8
2.122,72.6
2.123,72.4
2.124,72.6
2.125,72.6
2.126,72.6
2.1270000000000002,72.6
2.128,72.6
2.129,72.2
2.13,72.4
2.1310000000000002,72.6
2.132,72.4
2.133,72.2
2.134,72.6
2.1350000000000002,72.2
2.136,72.4
2.137,72.4
2.138,72.6
2.1390000000000002,72.2
2.14,72.6
2.141,72.4
2.142,72.2
2.1430000000000002,72.2
2.144,72.2
2.145,72.4
2.146,72.2
2.1470000000000002,72.0
2.148,72.2
2.149,72.2
2.15,72.2
2.1510000000000002,72.0
2.152,72.0
2.153,72.0
2.154,72.0
2.1550000000000002,72.2
2.156,72.0
2.157,71.8
2.158,71.8
2.1590000000000003,71.8
2.16,72.0
2.161,71.8
2.162,72.0
2.1630000000000003,72.0
2.164,71.6
2.165,71.8
2.166,72.0
2.1670000000000003,71.8
2.168,72.0
2.169,71.6
2.17,71.6
2.1710000000000003,71.4
2.172,71.4
2.173,71.6
2.174,71.4
2.1750000000000003,71.2
2.176,71.2
2.177,71.2
2.178,71.4
2.179,71.2
2.18,71.0
2.181,71.2
2.182,71.2
2.183,71.2
2.184,71.0
2.185,71.2
2.186,71.0
2.187,71.0
2.188,71.0
2.189,70.8
2.19,71.0
2.191,70.8
2.192,70.8
2.193,70.8
2.194,70.6
2.195,70.6
2.196,70.6
2.197,70.6
2.198,70.4
2.199,70.4
2.2,70.2
2.201,70.4
2.202,70.2
2.203,70.4
2.204,70.4
2.205,70.2
2.206,70.0
2.207,70.0
2.208,70.2
2.209,70.0
2.21,70.0
2.211,69.8
2.212,70.0
2.213,69.8
2.214,70.2
2.215,69.4
2.216,69.6
2.217,69.8
2.218,69.8
2.219,69.6
2.22,69.6
2.221,69.6
2.222,69.4
2.223,69.4
2.224,69.2
2.225,69.2
2.226,69.2
2.227,69.2
2.228,68.8
2.229,69.0
2.23,69.0
2.231,69.0
2.232,69.0
2.233,68.8
2.234,68.8
2.235,69.0
2.236,68.8
2.237,68.6
2.238,68.6
2.239,68.6
2.24,68.6
2.241,68.4
2.242,68.4
2.243,68.4
2.244,68.2
2.245,68.4
2.246,68.2
2.247,68.2
2.248,68.2
2.249,68.2
2.25,68.0
2.251,67.8
2.2520000000000002,67.8
2.253,68.0
2.254,68.0
2.255,67.6
2.2560000000000002,67.8
2.257,67.6
2.258,67.6
2.259,67.6
2.2600000000000002,67.6
2.261,67.6
2.262,67.6
2.263,67.4
2.2640000000000002,67.4
2.265,67.4
2.266,67.4
2.267,67.4
2.2680000000000002,67.0
2.269,67.2
2.27,67.0
2.271,67.0
2.2720000000000002,67.2
2.273,67.0
2.274,66.8
2.275,66.8
2.2760000000000002,66.8
2.277,66.8
2.278,66.8
2.279,66.6
2.2800000000000002,66.4
2.281,66.6
2.282,66.6
2.283,66.4
2.2840000000000003,66.4
2.285,66.4
2.286,66.4
2.287,66.4
2.2880000000000003,66.4
2.289,66.4
2.29,66.4
2.291,66.0
2.2920000000000003,66.4
2.293,66.0
2.294,66.0
2.295,66.0
2.2960000000000003,66.0
2.297,66.0
2.298,66.0
2.299,65.8
2.3000000000000003,65.8
2.301,65.6
2.302,65.8
2.303,65.8
2.3040000000000003,65.8
2.305,65.4
2.306,65.4
2.307,65.4
2.308,65.4
2.309,65.2
2.31,65.2
2.311,65.2
2.312,65.2
2.313,65.2
2.314,65.0
2.315,65.4
2.316,65.2
2.317,65.0
2.318,65.0
2.319,65.2
2.32,65.2
2.321,65.0
2.322,65.0
2.323,64.8
2.324,65.0
2.325,64.8
2.326,65.0
2.327,64.8
2.328,64.8
2.329,64.8
2.33,64.6
2.331,64.6
2.332,64.6
2.333,64.4
2.334,64.6
2.335,64.6
2.336,64.6
2.337,64.6
2.338,64.6
2.339,64.6
2.34,64.4
2.341,64.4
2.342,64.4
2.343,64.4
2.344,64.2
2.345,64.4
2.346,64.2
2.347,64.2
2.348,64.4
2.349,64.4
2.35,64.2
2.351,64.2
2.352,64.2
2.353,64.2
2.354,64.2
2.355,64.0
2.356,64.2
2.357,64.0
2.358,64.0
2.359,64.0
2.36,64.2
2.361,64.2
2.362,64.2
2.363,63.8
2.364,64.2
2.365,64.2
2.366,64.0
2.367,64.2
2.368,63.8
2.369,64.0
2.37,63.6
2.371,64.2
2.372,64.0
2.373,64.0
2.374,64.0
2.375,64.0
2.376,64.2
2.3770000000000002,63.8
2.378,63.8
2.379,63.6
2.38,63.6
2.3810000000000002,64.0
2.382,64.0
2.383,63.8
2.384,63.8
2.3850000000000002,63.8
2.386,63.8
2.387,64.0
2.388,63.8
2.3890000000000002,64.2
2.39,63.6
2.391,64.2
2.392,63.8
2.3930000000000002,63.8
2.394,63.8
2.395,63.8
2.396,63.6
2.3970000000000002,63.8
2.398,63.8
2.399,63.6
2.4,63.6
2.4010000000000002,64.0
2.402,63.8
2.403,64.0
2.404,64.0
2.4050000000000002,63.8
2.406,63.8
2.407,64.0
2.408,64.0
2.4090000000000003,63.6
2.41,64.0
2.411,63.8
2.412,64.0
2.4130000000000003,63.8
2.414,64.0
2.415,64.2
2.416,64.2
2.4170000000000003,64.2
2.418,64.0
2.419,64.0
2.42,64.0
2.4210000000000003,64.2
2.422,64.0
2.423,64.0
2.424,64.2
2.4250000000000003,64.2
2.426,64.0
2.427,64.0
2.428,64.2
2.4290000000000003,64.0
2.43,64.0
2.431,64.2
2.432,64.0
2.433,64.0
2.434,64.2
2.435,64.2
2.436,64.0
2.437,64.2
2.438,64.2
2.439,64.2
2.44,64.0
2.441,64.0
2.442,64.2
2.443,64.2
2.444,64.4
2.445,64.4
2.446,64.2
2.447,64.4
2.448,64.4
2.449,64.4
2.45,64.6
2.451,64.4
2.452,64.4
2.453,64.6
2.454,64.4
2.455,64.6
2.456,64.6
2.457,64.6
2.458,64.6
2.459,64.6
2.46,64.6
2.461,64.8
2.462,64.4
2.463,64.8
2.464,64.8
2.465,64.8
2.466,64.8
2.467,64.8
2.468,64.8
2.469,64.8
2.47,65.0
2.471,65.0
2.472,64.8
2.473,65.0
2.474,65.0
2.475,65.0
2.476,65.2
2.477,64.8
2.478,65.0
2.479,64.8
2.48,65.0
2.481,65.2
2.482,65.2
2.483,65.2
2.484,65.2
2.485,65.2
2.486,65.2
2.487,65.4
2.488,65.4
2.489,65.2
2.49,65.4
2.491,65.4
2.492,65.6
2.493,65.4
2.494,65.4
2.495,65.8
2.496,65.8
2.497,65.4
2.498,65.6
2.499,65.4
2.5,65.8
2.501,65.8
2.5020000000000002,65.8
2.503,65.8
2.504,66.0
2.505,65.8
2.5060000000000002,66.2
2.507,66.0
2.508,66.0
2.509,66.2
2.5100000000000002,66.0
2.511,66.2
2.512,66.0
2.513,66.4
2.5140000000000002,66.4
2.515,66.2
2.516,66.4
2.517,66.4
2.5180000000000002,66.4
2.519,66.0
2.52,66.4
2.521,66.4
2.5220000000000002,66.6
2.523,66.8
2.524,66.6
2.525,66.8
2.5260000000000002,66.8
2.527,66.8
2.528,66.8
2.529,66.8
2.5300000000000002,67.0
2.531,67.2
2.532,67.2
2.533,66.8
2.5340000000000003,67.2
2.535,67.2
2.536,67.2
2.537,67.4
2.5380000000000003,67.2
2.539,67.4
2.54,67.4
2.541,67.6
2.5420000000000003,67.4
2.543,67.4
2.544,67.6
2.545,67.6
2.5460000000000003,67.6
2.547,67.8
2.548,67.8
2.549,67.8
2.5500000000000003,68.0
2.551,67.8
2.552,68.0
2.553,67.8
2.5540000000000003,68.0
2.555,68.0
2.556,68.2
2.557,68.2
2.5580000000000003,68.0
2.559,68.4
2.56,68.4
2.561,68.2
2.562,68.4
2.563,68.4
2.564,68.6
2.565,68.6
2.566,68.6
2.567,68.8
2.568,68.8
2.569,68.6
2.57,68.8
2.571,68.8
2.572,68.8
2.573,68.8
2.574,68.8
2.575,69.2
2.576,69.0
2.577,69.2
2.578,69.2
2.579,69.4
2.58,69.2
2.581,69.2
2.582,69.4
2.583,69.4
2.584,69.4
2.585,69.6
2.586,69.6
2.587,69.6
2.588,69.8
2.589,69.8
2.59,69.6
2.591,69.8
2.592,69.8
2.593,70.0
2.594,70.0
2.595,70.0
2.596,69.8
2.597,69.8
2.598,70.2
2.599,70.0
2.6,70.4
2.601,70.4
2.602,70.2
2.603,70.2
2.604,70.4
2.605,70.4
2.606,70.4
2.607,70.4
2.608,70.6
2.609,70.4
2.61,70.4
2.611,70.4
2.612,70.6
2.613,70.8
2.614,70.8
2.615,71.0
2.616,70.8
2.617,70.8
2.618,70.8
2.619,71.0
2.62,70.8
2.621,71.0
2.622,71.2
2.623,71.0
2.624,71.0
2.625,71.0
2.626,71.2
2.6270000000000002,71.2
2.628,71.0
2.629,71.4
2.63,71.4
2.6310000000000002,71.2
2.632,71.4
2.633,71.6
2.634,71.4
2.6350000000000002,71.6
2.636,71.6
2.637,71.4
2.638,71.6
2.6390000000000002,71.6
2.64,71.6
2.641,71.4
2.642,71.8
2.6430000000000002,72.0
2.644,72.0
2.645,72.0
2.646,72.0
2.6470000000000002,71.8
2.648,72.0
2.649,72.0
2.65,72.0
2.6510000000000002,72.2
2.652,72.0
2.653,72.0
2.654,72.0
2.6550000000000002,72.0
2.656,72.2
2.657,72.2
2.658,72.2
2.6590000000000003,72.4
2.66,72.0
2.661,72.2
2.662,72.4
2.6630000000000003,72.4
2.664,72.4
2.665,72.2
2.666,72.2
2.6670000000000003,72.2
2.668,72.4
2.669,72.4
2.67,72.4
2.6710000000000003,72.2
2.672,72.6
2.673,72.4
2.674,72.6
2.6750000000000003,72.4
2.676,72.4
2.677,72.4
2.678,72.4
2.6790000000000003,72.6
2.68,72.8
2.681,72.8
2.682,72.6
2.6830000000000003,72.6
2.684,72.6
2.685,72.8
2.686,72.8
2.6870000000000003,72.4
2.688,72.8
2.689,72.8
2.69,72.8
2.691,72.8
2.692,72.8
2.693,73.0
2.694,72.8
2.695,72.8
2.696,72.6
2.697,72.6
2.698,72.8
2.699,73.0
2.7,72.8
2.701,73.0
2.702,72.8
2.703,72.8
2.704,72.8
2.705,72.8
2.706,72.8
2.707,73.0
2.708,72.8
2.709,72.8
2.71,72.6
2.711,72.8
2.712,72.8
2.713,72.8
2.714,73.0
2.715,72.8
2.716,73.0
2.717,72.6
2.718,72.8
2.719,72.8
2.72,72.8
2.721,72.8
2.722,72.8
2.723,72.8
2.724,72.8
2.725,72.8
2.726,72.6
2.727,72.6
2.728,72.6
2.729,72.6
2.73,72.8
2.731,73.0
2.732,72.6
2.733,72.6
2.734,72.8
2.735,72.8
2.736,72.6
2.737,72.6
2.738,72.6
2.739,72.6
2.74,72.6
2.741,72.4
2.742,72.6
2.743,72.6
2.744,72.4
2.745,72.6
2.746,72.4
2.747,72.4
2.748,72.6
2.749,72.4
2.75,72.4
2.751,72.0
2.7520000000000002,72.4
2.753,72.2
2.754,72.4
2.755,72.2
2.7560000000000002,72.4
2.757,72.2
2.758,72.4
2.759,72.2
2.7600000000000002,72.2
2.761,72.2
2.762,72.2
2.763,72.2
2.7640000000000002,72.0
2.765,72.0
2.766,72.0
2.767,72.0
2.7680000000000002,72.0
2.769,71.8
2.77,71.8
2.771,72.0
2.7720000000000002,72.2
2.773,72.0
2.774,71.8
2.775,71.8
2.7760000000000002,71.8
2.777,71.6
2.778,72.0
2.779,71.8
2.7800000000000002,72.0
2.781,71.6
2.782,71.6
2.783,71.4
2.7840000000000003,71.6
2.785,71.6
2.786,71.2
2.787,71.4
2.7880000000000003,71.4
2.789,71.2
2.79,71.4
2.791,71.4
2.7920000000000003,71.4
2.793,71.2
2.794,71.0
2.795,71.2
2.7960000000000003,71.0
2.797,71.2
2.798,71.0
2.799,71.2
2.8000000000000003,71.0
2.801,70.8
2.802,70.8
2.803,70.8
2.8040000000000003,70.8
2.805,70.8
2.806,70.8
2.807,70.4
2.8080000000000003,70.6
2.809,70.4
2.81,70.8
2.811,70.6
2.8120000000000003,70.4
2.813,70.6
2.814,70.4
2.815,70.4
2.816,70.2
2.817,70.4
2.818,70.2
2.819,70.4
2.82,70.2
2.821,70.0
2.822,70.0
2.823,69.8
2.824,70.0
2.825,69.8
2.826,69.8
2.827,70.0
2.828,69.8
2.829,69.6
2.83,69.8
2.831,69.6
2.832,69.6
2.833,69.8
2.834,69.6
2.835,69.4
2.836,69.2
2.837,69.4
2.838,69.2
2.839,69.2
2.84,69.0
2.841,69.2
2.842,69.2
2.843,69.0
2.844,69.0
2.845,68.8
2.846,68.8
2.847,68.8
2.848,68.8
2.849,68.8
2.85,68.8
2.851,68.4
2.852,68.8
2.853,68.6
2.854,68.4
2.855,68.4
2.856,68.4
2.857,68.4
2.858,68.4
2.859,68.2
2.86,68.4
2.861,68.2
2.862,68.0
2.863,68.0
2.864,68.0
2.865,68.0
2.866,68.0
2.867,67.8
2.868,67.8
2.869,67.6
2.87,67.6
2.871,67.6
2.872,67.6
2.873,67.6
2.874,67.6
2.875,67.4
2.876,67.4
2.8770000000000002,67.4
2.878,67.2
2.879,67.4
2.88,67.4
2.8810000000000002,67.2
2.882,67.2
2.883,67.2
2.884,67.2
2.8850000000000002,67.0
2.886,66.8
2.887,66.8
2.888,67.0
2.8890000000000002,66.8
2.89,66.8
2.891,66.8
2.892,66.6
2.8930000000000002,66.8
2.894,66.6
2.895,66.6
2.896,66.6
2.8970000000000002,66.4
2.898,66.6
2.899,66.4
2.9,66.4
2.9010000000000002,66.4
2.902,66.4
2.903,66.0
2.904,66.2
2.9050000000000002,66.2
2.906,66.0
2.907,66.0
2.908,65.8
2.9090000000000003,66.2
2.91,66.0
2.911,65.8
2.912,65.8
2.9130000000000003,65.8
2.914,65.8
2.915,65.6
2.916,65.8
2.9170000000000003,65.6
2.918,65.8
2.919,65.4
2.92,65.4
2.9210000000000003,65.2
2.922,65.2
2.923,65.6
2.924,65.4
2.9250000000000003,65.2
2.926,65.4
2.927,65.2
2.928,65.2
2.9290000000000003,65.2
2.93,65.0
2.931,65.0
2.932,65.0
2.9330000000000003,65.2
2.934,64.8
2.935,65.0
2.936,64.8
2.9370000000000003,64.8
2.938,64.6
2.939,64.8
2.94,64.8
2.9410000000000003,64.8
2.942,64.8
2.943,64.8
2.944,64.6
2.945,64.8
2.946,64.4
2.947,64.6
2.948,64.6
2.949,64.4
2.95,64.6
2.951,64.4
2.952,64.6
2.953,64.4
2.954,64.6
2.955,64.4
2.956,64.4
2.957,64.2
2.958,64.4
2.959,64.4
2.96,64.4
2.961,64.4
2.962,64.2
2.963,64.2
2.964,64.2
2.965,64.2
2.966,64.2
2.967,64.0
2.968,64.2
2.969,64.2
2.97,64.2
2.971,64.2
2.972,64.0
2.973,64.0
2.974,64.0
2.975,64.0
2.976,64.0
2.977,64.2
2.978,64.2
2.979,64.0
2.98,64.0
2.981,64.2
2.982,64.0
2.983,64.2
2.984,63.8
2.985,64.0
2.986,63.8
2.987,64.0
2.988,64.0
2.989,64.0
2.99,64.2
2.991,63.8
2.992,63.6
2.993,64.0
2.994,63.6
2.995,63.8
2.996,64.2
2.997,63.8
2.998,63.8
2.999,63.8
3.0,63.8
3.001,63.8
3.0020000000000002,63.8
3.003,63.8
3.004,63.8
3.005,63.8
3.0060000000000002,63.8
3.007,63.8
3.008,63.8
3.009,63.8
3.0100000000000002,63.8
3.011,63.8
3.012,64.0
3.013,63.8
3.0140000000000002,63.8
3.015,64.0
3.016,63.8
3.017,63.8
3.0180000000000002,63.8
3.019,63.8
3.02,63.6
3.021,63.6
3.0220000000000002,63.8
3.023,63.8
3.024,64.0
3.025,64.0
3.0260000000000002,63.8
3.027,63.8
3.028,64.0
3.029,64.0
3.0300000000000002,63.8
3.031,64.0
3.032,64.0
3.033,63.8
3.0340000000000003,63.8
3.035,63.8
3.036,64.0
3.037,64.0
3.0380000000000003,64.0
3.039,64.0
3.04,64.2
3.041,64.2
3.0420000000000003,64.2
3.043,64.0
3.044,64.2
3.045,64.2
3.0460000000000003,64.2
3.047,64.2
3.048,64.0
3.049,64.2
3.0500000000000003,64.2
3.051,64.2
3.052,64.2
3.053,64.4
3.0540000000000003,64.2
3.055,64.4
3.056,64.2
3.057,64.4
3.0580000000000003,64.4
3.059,64.4
3.06,64.4
3.061,64.4
3.0620000000000003,64.2
3.063,64.4
3.064,64.6
3.065,64.6
3.0660000000000003,64.2
3.067,64.6
3.068,64.6
3.069,64.4
3.0700000000000003,64.6
3.071,64.4
3.072,64.4
3.073,64.6
3.074,64.6
3.075,64.8
3.076,64.8
3.077,64.8
3.078,64.6
3.079,64.8
3.08,64.8
3.081,65.0
3.082,64.8
3.083,64.8
3.084,65.0
3.085,64.8
3.086,64.8
3.087,64.8
3.088,65.0
3.089,65.0
3.09,65.0
3.091,65.0
3.092,65.0
3.093,65.0
3.094,65.2
3.095,65.2
3.096,65.2
3.097,65.2
3.098,65.2
3.099,65.2
3.1,65.4
3.101,65.4
3.102,65.4
3.103,65.4
3.104,65.6
3.105,65.2
3.106,65.4
3.107,65.8
3.108,65.4
3.109,65.8
3.11,65.8
3.111,65.8
3.112,65.8
3.113,65.8
3.114,65.8
3.115,65.6
3.116,66.0
3.117,66.0
3.118,65.8
3.119,65.8
3.12,65.8
3.121,66.2
3.122,66.0
3.123,66.0
3.124,66.2
3.125,66.2
3.126,66.0
3.1270000000000002,66.4
3.128,66.2
3.129,66.4
3.13,66.4
3.1310000000000002,66.4
3.132,66.4
3.133,66.4
3.134,66.6
3.1350000000000002,66.6
3.136,66.6
3.137,66.8
3.138,66.8
3.1390000000000002,66.8
3.14,66.8
3.141,66.8
3.142,67.0
3.1430000000000002,66.8
3.144,67.0
3.145,67.0
3.146,67.0
3.1470000000000002,67.2
3.148,67.0
3.149,67.2
3.15,67.4
3.1510000000000002,67.4
3.152,67.4
3.153,67.4
3.154,67.6
3.1550000000000002,67.4
3.156,67.4
3.157,67.6
3.158,67.6
3.1590000000000003,67.6
3.16,67.6
3.161,67.8
3.162,67.6
3.1630000000000003,68.0
3.164,68.0
3.165,68.0
3.166,67.8
3.1670000000000003,68.0
3.168,68.2
3.169,68.2
3.17,68.0
3.1710000000000003,68.2
3.172,68.2
3.173,68.2
3.174,68.2
3.1750000000000003,68.2
3.176,68.4
3.177,68.6
3.178,68.6
3.1790000000000003,68.6
3.18,68.8
3.181,68.6
3.182,68.8
3.1830000000000003,68.8
3.184,68.6
3.185,69.0
3.186,68.8
3.1870000000000003,68.8
3.188,69.0
3.189,69.2
3.19,69.2
3.1910000000000003,69.2
3.192,69.2
3.193,69.2
3.194,69.4
3.1950000000000003,69.4
3.196,69.4
3.197,69.4
3.198,69.4
3.1990000000000003,69.6
3.2,69.6
3.201,69.6
3.202,69.8
3.203,69.6
3.204,69.6
3.205,69.8
3.206,70.0
3.207,70.0
3.208,70.0
3.209,70.0
3.21,70.4
3.211,70.0
3.212,70.2
3.213,70.2
3.214,70.0
3.215,70.4
3.216,70.4
3.217,70.4
3.218,70.2
3.219,70.6
3.22,70.6
3.221,70.4
3.222,70.4
3.223,70.6
3.224,70.6
3.225,70.6
3.226,70.8
3.227,70.8
3.228,70.8
3.229,70.8
3.23,71.0
3.231,70.8
3.232,70.8
3.233,71.0
3.234,71.0
3.235,71.0
3.236,71.0
3.237,71.2
3.238,71.2
3.239,71.2
3.24,71.2
3.241,71.2
3.242,71.4
3.243,71.4
3.244,71.2
3.245,71.6
3.246,71.2
3.247,71.6
3.248,71.4
3.249,71.6
3.25,71.6
3.251,71.4
3.2520000000000002,71.6
3.253,72.0
3.254,71.6
3.255,72.0
3.2560000000000002,72.0
3.257,72.0
3.258,72.0
3.259,71.8
3.2600000000000002,72.0
3.261,71.8
3.262,72.2
3.263,72.0
3.2640000000000002,71.8
3.265,72.0
3.266,72.2
3.267,72.2
3.2680000000000002,72.2
3.269,72.0
3.27,72.2
3.271,72.0
3.2720000000000002,72.2
3.273,72.4
3.274,72.4
3.275,72.2
3.2760000000000002,72.4
3.277,72.4
3.278,72.4
3.279,72.4
3.2800000000000002,72.6
3.281,72.4
3.282,72.4
3.283,72.4
3.2840000000000003,72.4
3.285,72.6
3.286,72.4
3.287,72.6
3.2880000000000003,72.6
3.289,72.4
3.29,72.4
3.291,72.4
3.2920000000000003,72.6
3.293,72.6
3.294,72.6
3.295,72.6
3.2960000000000003,72.6
3.297,72.8
3.298,72.6
3.299,72.8
3.3000000000000003,72.6
3.301,72.8
3.302,72.6
3.303,72.6
3.3040000000000003,72.6
3.305,72.8
3.306,72.8
3.307,73.0
3.3080000000000003,72.8
3.309,73.0
3.31,72.8
3.311,72.6
3.3120000000000003,73.0
3.313,72.8
3.314,72.8
3.315,72.8
3.3160000000000003,72.8
3.317,72.8
3.318,73.0
3.319,73.0
3.3200000000000003,73.0
3.321,72.8
3.322,73.0
3.323,72.8
3.3240000000000003,72.6
3.325,72.8
3.326,72.8
3.327,72.8
3.3280000000000003,73.0
3.329,72.8
3.33,72.6
3.331,72.8
3.332,72.8
3.333,72.6
3.334,72.8
3.335,72.8
3.336,73.0
3.337,72.8
3.338,72.8
3.339,73.0
3.34,72.6
3.341,72.8
3.342,72.8
3.343,72.8
3.344,72.8
3.345,72.6
3.346,72.6
3.347,72.6
3.348,72.6
3.349,72.6
3.35,72.6
3.351,72.4
3.352,72.6
3.353,72.6
3.354,72.6
3.355,72.6
3.356,72.6
3.357,72.6
3.358,72.4
3.359,72.4
3.36,72.2
3.361,72.6
3.362,72.6
3.363,72.4
3.364,72.2
3.365,72.4
3.366,72.4
3.367,72.4
3.368,72.2
3.369,72.2
3.37,72.2
3.371,72.2
3.372,72.4
3.373,72.4
3.374,72.4
3.375,72.0
3.376,72.2
3.3770000000000002,72.0
3.378,72.2
3.379,72.2
3.38,72.0
3.3810000000000002,72.0
3.382,72.0
3.383,71.8
3.384,71.8
3.3850000000000002,72.0
3.386,72.0
3.387,72.0
3.388,71.8
3.3890000000000002,71.8
3.39,71.8
3.391,71.8
3.392,71.8
3.3930000000000002,72.0
3.394,71.6
3.395,71.4
3.396,71.4
3.3970000000000002,71.6
3.398,71.4
3.399,71.4
3.4,71.4
3.4010000000000002,71.2
3.402,71.2
3.403,71.2
3.404,71.2
3.4050000000000002,71.2
3.406,71.4
3.407,71.2
3.408,71.2
3.4090000000000003,71.2
3.41,70.8
3.411,71.0
3.412,71.0
3.4130000000000003,70.8
3.414,71.0
3.415,71.0
3.416,70.8
3.4170000000000003,70.6
3.418,71.0
3.419,70.6
3.42,70.8
3.4210000000000003,70.8
3.422,70.4
3.423,70.4
3.424,70.4
3.4250000000000003,70.6
3.426,70.4
3.427,70.4
3.428,70.6
3.4290000000000003,70.2
3.43,70.2
3.431,70.2
3.432,70.2
3.4330000000000003,70.2
3.434,70.2
3.435,70.2
3.436,70.0
3.4370000000000003,70.2
3.438,70.0
3.439,69.8
3.44,70.0
3.4410000000000003,70.0
3.442,69.8
3.443,69.8
3.444,69.6
3.4450000000000003,69.6
3.446,69.4
3.447,69.4
3.448,69.2
3.4490000000000003,69.4
3.45,69.2
3.451,69.4
3.452,69.4
3.4530000000000003,69.2
3.454,69.2
3.455,69.2
3.456,69.0
3.457,68.8
3.458,69.0
3.459,68.8
3.46,68.8
3.461,68.8
3.462,68.8
3.463,68.8
3.464,68.8
3.465,68.6
3.466,68.6
3.467,68.4
3.468,68.6
3.469,68.2
3.47,68.2
3.471,68.2
3.472,68.2
3.473,68.2
3.474,68.2
3.475,68.2
3.476,68.2
3.477,68.0
3.478,67.8
3.479,67.8
3.48,67.8
3.481,67.8
3.482,67.8
3.483,67.8
3.484,67.8
3.485,67.6
3.486,67.6
3.487,67.4
3.488,67.6
3.489,67.4
3.49,67.4
3.491,67.4
3.492,67.4
3.493,67.2
3.494,67.2
3.495,67.4
3.496,67.2
3.497,67.2
3.498,66.8
3.499,67.0
3.5,66.8
3.501,67.0
3.5020000000000002,66.8
3.503,67.0
3.504,66.8
3.505,66.8
3.5060000000000002,66.6
3.507,66.8
3.508,66.6
3.509,66.4
3.5100000000000002,66.4
3.511,66.4
3.512,66.4
3.513,66.4
3.5140000000000002,66.4
3.515,66.2
3.516,66.0
3.517,66.2
3.5180000000000002,66.2
3.519,66.0
3.52,66.2
3.521,66.0
3.5220000000000002,65.8
3.523,66.0
3.524,66.0
3.525,65.8
3.5260000000000002,65.8
3.527,65.8
3.528,65.6
3.529,65.6
3.5300000000000002,65.6
3.531,65.6
3.532,65.6
3.533,65.8
3.5340000000000003,65.6
3.535,65.4
3.536,65.4
3.537,65.4
3.5380000000000003,65.2
3.539,65.4
3.54,65.4
3.541,65.2
3.5420000000000003,65.2
3.543,65.0
3.544,65.2
3.545,65.2
3.5460000000000003,65.0
3.547,65.0
3.548,65.2
3.549,65.2
3.5500000000000003,65.2
3.551,64.8
3.552,64.8
3.553,64.8
3.5540000000000003,65.0
3.555,64.8
3.556,64.6
3.557,64.6
3.5580000000000003,64.6
3.559,64.8
3.56,64.6
3.561,64.4
3.5620000000000003,64.6
3.563,64.8
3.564,64.6
3.565,64.6
3.5660000000000003,64.2
3.567,64.4
3.568,64.4
3.569,64.4
3.5700000000000003,64.4
3.571,64.4
3.572,64.4
3.573,64.2
3.5740000000000003,64.2
3.575,64.2
3.576,64.2
3.577,64.4
3.5780000000000003,64.2
3.579,64.2
3.58,64.2
3.581,64.2
3.5820000000000003,64.0
3.583,64.2
3.584,64.2
3.585,64.2
3.586,64.0
3.587,64.0
3.588,64.0
3.589,64.2
3.59,64.2
3.591,64.0
3.592,64.0
3.593,64.0
3.594,64.0
3.595,63.8
3.596,64.2
3.597,63.8
3.598,64.0
3.599,64.0
3.6,64.0
3.601,63.8
3.602,64.2
3.603,64.0
3.604,64.2
3.605,64.0
3.606,64.0
3.607,63.8
3.608,63.6
3.609,64.2
3.61,63.6
3.611,63.8
3.612,63.8
3.613,63.8
3.614,63.6
3.615,64.0
3.616,64.0
3.617,63.8
3.618,63.6
3.619,63.8
3.62,63.8
3.621,63.8
3.622,63.8
3.623,64.0
3.624,63.6
3.625,64.0
3.626,64.0
3.6270000000000002,63.8
3.628,63.8
3.629,63.8
3.63,63.8
3.6310000000000002,64.0
3.632,63.8
3.633,63.8
3.634,63.8
3.6350000000000002,64.2
3.636,70.2
3.637,66.4
3.638,65.8
3.6390000000000002,70.4
3.64,64.4
3.641,69.4
3.642,67.8
3.6430000000000002,64.6
3.644,70.6
3.645,65.2
3.646,68.2
3.6470000000000002,69.6
3.648,64.4
3.649,67.4
3.65,70.0
3.6510000000000002,70.4
3.652,70.8
3.653,70.8
3.654,65.4
3.6550000000000002,67.6
3.656,69.4
3.657,64.4
3.658,70.4
3.6590000000000003,66.6
3.66,66.4
3.661,70.6
3.662,64.6
3.6630000000000003,69.6
3.664,68.0
3.665,65.6
3.666,70.8
3.6670000000000003,65.2
3.668,68.4
3.669,69.6
3.67,64.8
3.6710000000000003,70.8
3.672,66.4
3.673,67.2
3.674,70.6
3.6750000000000003,64.8
3.676,70.0
3.677,67.6
3.678,66.0
3.6790000000000003,70.8
3.68,65.2
3.681,69.0
3.682,69.0
3.6830000000000003,65.2
3.684,71.0
3.685,65.8
3.686,67.6
3.6870000000000003,70.4
3.688,65.0
3.689,70.6
3.69,67.4
3.6910000000000003,66.4
3.692,71.0
3.693,65.0
3.694,69.4
3.6950000000000003,68.6
3.696,65.2
3.697,71.2
3.698,65.8
3.6990000000000003,68.0
3.7,69.8
3.701,65.0
3.702,70.8
3.7030000000000003,67.0
3.704,66.8
3.705,70.8
3.706,65.0
3.7070000000000003,69.8
3.708,68.2
3.709,65.6
3.71,71.4
3.7110000000000003,65.6
3.712,68.8
3.713,69.4
3.714,65.0
3.715,71.0
3.716,66.6
3.717,67.2
3.718,70.8
3.719,65.0
3.72,70.2
3.721,67.8
3.722,66.2
3.723,71.0
3.724,65.4
3.725,69.2
3.726,69.0
3.727,65.0
3.728,71.0
3.729,66.4
3.73,67.8
3.731,70.4
3.732,64.8
3.733,70.6
3.734,67.4
3.735,66.6
3.736,71.0
3.737,65.0
3.738,69.8
3.739,68.6
3.74,65.8
3.741,71.0
3.742,65.8
3.743,68.2
3.744,70.2
3.745,65.0
3.746,71.0
3.747,67.0
3.748,67.0
3.749,70.8
3.75,65.2
3.751,70.2
3.7520000000000002,68.4
3.753,66.0
3.754,71.2
3.755,65.6
3.7560000000000002,68.6
3.757,69.6
3.758,65.2
3.759,71.0
3.7600000000000002,66.4
3.761,67.6
3.762,70.6
3.763,65.0
3.7640000000000002,70.2
3.765,67.6
3.766,66.2
3.767,71.0
3.7680000000000002,65.4
3.769,69.2
3.77,69.0
3.771,65.2
3.7720000000000002,71.4
3.773,66.2
3.774,67.8
3.775,70.4
3.7760000000000002,64.8
3.777,70.8
3.778,67.4
3.779,66.6
3.7800000000000002,71.0
3.781,65.2
3.782,69.8
3.783,68.8
3.7840000000000003,65.6
3.785,71.2
3.786,65.6
3.787,68.2
3.7880000000000003,70.0
3.789,65.0
3.79,70.8
3.791,67.0
3.7920000000000003,67.2
3.793,70.8
3.794,64.8
3.795,70.2
3.7960000000000003,68.2
3.797,66.0
3.798,71.0
3.799,65.6
3.8000000000000003,68.8
3.801,69.4
3.802,65.4
3.803,71.2
3.8040000000000003,66.6
3.805,67.8
3.806,70.4
3.807,65.0
3.8080000000000003,70.4
3.809,67.6
3.81,66.4
3.811,71.2
3.8120000000000003,65.0
3.813,69.4
3.814,69.0
3.815,65.4
3.8160000000000003,71.2
3.817,66.2
3.818,68.2
3.819,70.2
3.8200000000000003,65.0
3.821,70.8
3.822,67.2
3.823,66.8
3.8240000000000003,71.0
3.825,65.0
3.826,69.8
3.827,68.6
3.8280000000000003,65.8
3.829,71.2
3.83,65.8
3.831,68.6
3.8320000000000003,69.8
3.833,65.4
3.834,71.0
3.835,66.8
3.8360000000000003,67.0
3.837,70.6
3.838,65.0
3.839,70.4
3.84,68.0
3.841,66.2
3.842,71.2
3.843,65.4
3.844,69.0
3.845,69.6
3.846,65.4
3.847,71.2
3.848,66.4
3.849,67.6
3.85,70.6
3.851,65.0
3.852,70.6
3.853,67.6
3.854,66.6
3.855,71.0
3.856,65.2
3.857,69.6
3.858,68.8
3.859,65.4
3.86,71.4
3.861,66.2
3.862,68.2
3.863,70.2
3.864,65.0
3.865,70.6
3.866,67.2
3.867,66.8
3.868,71.0
3.869,65.2
3.87,70.0
3.871,68.4
3.872,65.8
3.873,71.4
3.874,65.8
3.875,68.4
3.876,69.8
3.8770000000000002,65.0
3.878,71.0
3.879,66.6
3.88,67.6
3.8810000000000002,70.6
3.882,65.0
3.883,70.2
3.884,68.2
3.8850000000000002,66.2
3.886,71.4
3.887,65.6
3.888,69.2
3.8890000000000002,69.2
3.89,65.4
3.891,71.2
3.892,66.4
3.8930000000000002,68.0
3.894,70.6
3.895,65.0
3.896,70.6
3.8970000000000002,67.6
3.898,66.4
3.899,71.2
3.9,65.2
3.9010000000000002,69.4
3.902,69.0
3.903,65.6
3.904,71.4
3.9050000000000002,65.8
3.906,68.4
3.907,70.2
3.908,65.2
3.9090000000000003,70.8
3.91,67.2
3.911,67.0
3.912,71.0
3.9130000000000003,65.0
3.914,70.0
3.915,68.4
3.916,65.8
3.9170000000000003,71.2
3.918,65.6
3.919,68.6
3.92,69.8
3.9210000000000003,65.2
3.922,71.0
3.923,66.8
3.924,67.4
3.9250000000000003,70.6
3.926,65.0
3.927,70.6
3.928,68.0
3.9290000000000003,66.2
3.93,71.2
3.931,65.4
3.932,69.2
3.9330000000000003,69.4
3.934,65.4
3.935,71.2
3.936,66.2
3.9370000000000003,67.8
3.938,70.6
3.939,64.8
3.94,70.6
3.9410000000000003,67.6
3.942,66.6
3.943,71.0
3.944,65.2
3.9450000000000003,69.6
3.946,68.8
3.947,65.6
3.948,71.2
3.9490000000000003,66.0
3.95,68.4
3.951,70.0
3.952,65.0
3.9530000000000003,70.8
3.954,67.2
3.955,67.2
3.956,71.0
3.9570000000000003,64.8
3.958,70.0
3.959,68.4
3.96,66.0
3.9610000000000003,71.4
3.962,65.6
3.963,69.0
3.964,69.4
3.9650000000000003,65.0
3.966,71.2
3.967,66.4
3.968,67.6
3.969,70.6
3.97,65.0
3.971,70.2
3.972,67.8
3.973,66.2
3.974,71.2
3.975,65.4
3.976,69.2
3.977,69.2
3.978,65.2
3.979,71.2
3.98,66.4
3.981,68.0
3.982,70.4
3.983,64.8
3.984,70.6
3.985,67.4
3.986,66.6
3.987,71.0
3.988,65.2
3.989,69.6
3.99,68.8
3.991,65.6
3.992,71.2
3.993,65.8
3.994,68.4
3.995,70.0
3.996,65.0
3.997,70.8
3.998,67.0
3.999,67.2
4.0,71.0
4.001,65.2
4.002,70.0
4.003,68.2
4.0040000000000004,65.8
4.005,71.4
4.006,65.6
4.007,68.8
4.008,69.8
4.009,65.4
4.01,71.0
4.011,66.6
4.0120000000000005,67.6
4.013,70.6
4.014,64.8
4.015,70.6
4.016,67.8
4.017,66.2
4.018,71.2
4.019,65.4
4.0200000000000005,69.4
4.021,69.2
4.022,65.4
4.023,71.2
4.024,66.2
4.025,68.0
4.026,70.4
4.027,65.0
4.0280000000000005,70.8
4.029,67.2
4.03,66.6
4.031,71.2
4.032,65.2
4.033,69.8
4.034,68.8
4.035,65.8
4.0360000000000005,71.4
4.037,66.0
4.038,68.4
4.039,70.0
4.04,65.2
4.041,71.0
4.042,67.0
4.043,67.2
4.0440000000000005,70.8
4.045,65.0
4.046,70.2
4.047,68.2
4.048,66.2
4.049,71.4
4.05,65.4
4.051,68.8
4.0520000000000005,69.6
4.053,65.0
4.054,71.2
4.055,66.6
4.056,67.8
4.057,70.6
4.058,65.0
4.059,70.6
4.0600000000000005,67.8
4.061,66.2
4.062,71.2
4.063,65.4
4.064,69.4
4.065,69.0
4.066,65.8
4.067,71.2
4.0680000000000005,66.0
4.069,68.0
4.07,70.4
4.071,65.0
4.072,70.8
4.073,67.2
4.074,66.8
4.075,70.8
4.0760000000000005,65.2
4.077,69.6
4.078,68.6
4.079,65.6
4.08,71.6
4.081,65.8
4.082,68.4
4.083,69.8
4.0840000000000005,65.2
4.085,71.0
4.086,66.8
4.087,67.2
4.088,70.8
4.089,64.8
4.09,70.4
4.091,68.2
4.0920000000000005,66.0
4.093,71.2
4.094,65.6
4.095,69.2
4.096,69.4
4.097,65.2
4.098,71.0
4.099,66.4
4.1,67.8
4.101,70.6
4.102,64.8
4.103,70.2
4.104,67.6
4.105,66.4
4.106,71.2
4.107,65.2
4.108,69.6
4.109,69.0
4.11,65.4
4.111,71.4
4.112,66.0
4.113,68.0
4.114,70.0
4.115,65.0
4.116,70.6
4.117,67.0
4.118,67.0
4.119,71.0
4.12,65.2
4.121,70.0
4.122,68.4
4.123,66.0
4.124,71.4
4.125,65.8
4.126,68.6
4.127,69.6
4.128,65.4
4.1290000000000004,71.0
4.13,66.8
4.131,67.4
4.132,70.6
4.133,65.2
4.134,70.4
4.135,68.0
4.136,66.2
4.1370000000000005,71.2
4.138,65.4
4.139,69.0
4.14,69.4
4.141,65.2
4.142,71.2
4.143,66.4
4.144,67.8
4.1450000000000005,70.4
4.146,65.0
4.147,70.6
4.148,67.6
4.149,66.6
4.15,71.0
4.151,65.0
4.152,69.4
4.1530000000000005,69.0
4.154,65.8
4.155,71.0
4.156,66.0
4.157,68.2
4.158,70.2
4.159,65.0
4.16,71.0
4.1610000000000005,67.2
4.162,66.8
4.163,70.8
4.164,65.4
4.165,70.0
4.166,68.4
4.167,66.0
4.168,71.4
4.1690000000000005,65.8
4.17,68.8
4.171,70.0
4.172,65.2
4.173,71.2
4.174,66.6
4.175,67.4
4.176,70.6
4.1770000000000005,65.2
4.178,70.4
4.179,68.0
4.18,66.2
4.181,71.2
4.182,65.2
4.183,69.2
4.184,69.2
4.1850000000000005,65.4
4.186,71.0
4.187,66.2
4.188,67.6
4.189,70.4
4.19,65.0
4.191,70.4
4.192,67.6
4.1930000000000005,66.6
4.194,71.2
4.195,65.2
4.196,69.6
4.197,68.8
4.198,65.8
4.199,71.2
4.2,65.8
4.2010000000000005,68.4
4.202,70.0
4.203,65.0
4.204,70.8
4.205,67.0
4.206,67.2
4.207,70.8
4.208,65.0
4.2090000000000005,70.0
4.21,68.4
4.211,66.0
4.212,71.2
4.213,65.6
4.214,68.8
4.215,69.6
4.216,65.2
4.2170000000000005,71.2
4.218,66.4
4.219,67.4
4.22,70.6
4.221,65.0
4.222,70.4
4.223,67.8
4.224,66.2
4.225,71.2
4.226,65.4
4.227,69.4
4.228,69.2
4.229,65.4
4.23,71.4
4.231,66.2
4.232,68.0
4.233,70.4
4.234,65.0
4.235,70.6
4.236,67.4
4.237,66.8
4.238,71.0
4.239,65.2
4.24,69.8
4.241,68.8
4.242,65.8
4.243,71.4
4.244,65.8
4.245,68.4
4.246,70.0
4.247,65.4
4.248,71.0
4.249,66.8
4.25,67.2
4.251,70.8
4.252,65.2
4.253,70.2
4.2540000000000004,68.0
4.255,66.0
4.256,71.4
4.257,65.8
4.258,68.8
4.259,69.4
4.26,65.2
4.261,70.8
4.2620000000000005,66.6
4.263,67.6
4.264,70.8
4.265,65.0
4.266,70.2
4.267,67.8
4.268,66.4
4.269,71.4
4.2700000000000005,65.4
4.271,69.2
4.272,69.0
4.273,65.2
4.274,71.2
4.275,66.2
4.276,68.0
4.277,70.4
4.2780000000000005,65.2
4.279,70.6
4.28,67.2
4.281,66.6
4.282,71.2
4.283,65.2
4.284,69.8
4.285,68.8
4.2860000000000005,65.6
4.287,71.2
4.288,66.0
4.289,68.4
4.29,70.0
4.291,65.0
4.292,71.0
4.293,66.8
4.2940000000000005,67.2
4.295,70.8
4.296,65.0
4.297,70.0
4.298,68.2
4.299,66.0
4.3,71.4
4.301,65.6
4.3020000000000005,69.2
4.303,69.4
4.304,65.4
4.305,71.2
4.306,66.6
4.307,67.6
4.308,70.6
4.309,65.2
4.3100000000000005,70.4
4.311,67.6
4.312,66.2
4.313,71.2
4.314,65.2
4.315,69.4
4.316,69.0
4.317,65.4
4.3180000000000005,71.4
4.319,66.2
4.32,68.0
4.321,70.2
4.322,65.0
4.323,70.8
4.324,67.4
4.325,66.8
4.3260000000000005,71.0
4.327,65.2
4.328,70.0
4.329,68.4
4.33,65.8
4.331,71.4
4.332,66.0
4.333,68.6
4.3340000000000005,70.0
4.335,65.0
4.336,71.0
4.337,66.8
4.338,67.2
4.339,70.8
4.34,65.2
4.341,70.4
4.3420000000000005,68.0
4.343,66.0
4.344,71.4
4.345,65.8
4.346,69.2
4.347,69.4
4.348,65.2
4.349,71.2
4.3500000000000005,66.2
4.351,67.6
4.352,70.6
4.353,64.8
4.354,70.4
4.355,67.6
4.356,66.4
4.357,71.2
4.358,65.0
4.359,69.4
4.36,68.8
4.361,65.6
4.362,71.2
4.363,66.2
4.364,68.2
4.365,70.2
4.366,65.0
4.367,70.8
4.368,67.2
4.369,66.8
4.37,70.8
4.371,65.2
4.372,69.8
4.373,68.4
4.374,65.6
4.375,71.4
4.376,65.8
4.377,68.6
4.378,69.6
4.3790000000000004,65.0
4.38,71.0
4.381,66.8
4.382,67.4
4.383,70.8
4.384,65.0
4.385,70.2
4.386,68.2
4.3870000000000005,66.2
4.388,71.2
4.389,65.4
4.39,69.0
4.391,69.4
4.392,65.2
4.393,71.0
4.394,66.4
4.3950000000000005,68.0
4.396,70.4
4.397,65.0
4.398,70.6
4.399,67.6
4.4,66.6
4.401,71.0
4.402,65.2
4.4030000000000005,69.6
4.404,69.0
4.405,65.4
4.406,71.2
4.407,65.8
4.408,68.2
4.409,70.0
4.41,65.0
4.4110000000000005,71.0
4.412,67.2
4.413,66.8
4.414,71.0
4.415,65.2
4.416,69.8
4.417,68.6
4.418,65.8
4.4190000000000005,71.2
4.42,65.6
4.421,68.6
4.422,70.0
4.423,65.0
4.424,71.2
4.425,66.6
4.426,67.6
4.4270000000000005,70.6
4.428,65.2
4.429,70.4
4.43,68.0
4.431,66.2
4.432,71.2
4.433,65.4
4.434,69.0
4.4350000000000005,69.2
4.436,65.4
4.437,71.2
4.438,66.4
4.439,68.0
4.44,70.4
4.441,65.0
4.442,70.6
4.4430000000000005,67.6
4.444,66.6
4.445,71.0
4.446,65.2
4.447,69.6
4.448,68.8
4.449,65.6
4.45,71.4
4.4510000000000005,66.0
4.452,68.4
4.453,70.0
4.454,65.0
4.455,71.0
4.456,67.0
4.457,67.0
4.458,70.8
4.4590000000000005,65.0
4.46,70.0
4.461,68.4
4.462,65.8
4.463,71.4
4.464,65.6
4.465,68.6
4.466,69.8
4.4670000000000005,65.2
4.468,71.2
4.469,66.6
4.47,67.4
4.471,70.8
4.472,65.0
4.473,70.4
4.474,68.0
4.4750000000000005,66.2
4.476,71.2
4.477,65.4
4.478,69.2
4.479,69.0
4.48,65.4
4.481,71.2
4.482,66.4
4.483,68.0
4.484,70.4
4.485,65.0
4.486,70.6
4.487,67.6
4.488,66.6
4.489,71.0
4.49,65.2
4.491,69.6
4.492,68.8
4.493,65.8
4.494,71.2
4.495,66.0
4.496,68.4
4.497,70.2
4.498,65.0
4.499,70.6
4.5,66.8
4.501,67.0
4.502,71.0
4.503,65.2
4.5040000000000004,70.4
4.505,68.2
4.506,66.0
4.507,71.4
4.508,65.6
4.509,68.8
4.51,69.6
4.511,65.2
4.5120000000000005,71.0
4.513,66.6
4.514,67.6
4.515,70.6
4.516,65.0
4.517,70.4
4.518,67.8
4.519,66.2
4.5200000000000005,71.2
4.521,65.4
4.522,69.4
4.523,69.0
4.524,65.4
4.525,71.0
4.526,66.4
4.527,68.0
4.5280000000000005,70.2
4.529,65.0
4.53,70.6
4.531,67.2
4.532,66.8
4.533,70.8
4.534,65.2
4.535,69.6
4.5360000000000005,68.6
4.537,65.6
4.538,71.4
4.539,65.8
4.54,68.4
4.541,69.8
4.542,65.0
4.543,71.0
4.5440000000000005,67.0
4.545,67.2
4.546,70.8
4.547,65.0
4.548,70.0
4.549,68.2
4.55,66.0
4.551,71.2
4.5520000000000005,65.6
4.553,68.8
4.554,69.8
4.555,65.4
4.556,71.0
4.557,66.6
4.558,67.6
4.559,70.4
4.5600000000000005,65.0
4.561,70.4
4.562,67.6
4.563,66.2
4.564,71.4
4.565,65.2
4.566,69.6
4.567,69.2
4.5680000000000005,65.4
4.569,71.4
4.57,66.2
4.571,68.0
4.572,70.2
4.573,65.0
4.574,70.8
4.575,67.4
4.5760000000000005,66.6
4.577,71.0
4.578,65.2
4.579,70.0
4.58,68.6
4.581,66.0
4.582,71.2
4.583,65.8
4.5840000000000005,68.6
4.585,70.0
4.586,65.2
4.587,70.8
4.588,66.8
4.589,67.2
4.59,70.8
4.591,65.0
4.5920000000000005,70.4
4.593,68.2
4.594,66.2
4.595,71.2
4.596,65.4
4.597,69.2
4.598,69.2
4.599,65.4
4.6000000000000005,71.2
4.601,66.4
4.602,67.8
4.603,70.6
4.604,64.8
4.605,70.6
4.606,67.8
4.607,66.4
4.6080000000000005,70.8
4.609,65.2
4.61,69.4
4.611,69.0
4.612,65.8
4.613,71.2
4.614,66.0
4.615,68.2
4.616,70.4
4.617,65.0
4.618,70.8
4.619,67.2
4.62,66.8
4.621,70.8
4.622,65.2
4.623,69.8
4.624,68.4
4.625,66.0
4.626,71.4
4.627,65.8
4.628,68.6
4.6290000000000004,70.0
4.63,65.2
4.631,71.0
4.632,66.6
4.633,67.2
4.634,70.6
4.635,65.0
4.636,70.0
4.6370000000000005,68.0
4.638,66.2
4.639,71.4
4.64,65.4
4.641,69.2
4.642,69.2
4.643,65.4
4.644,71.4
4.6450000000000005,66.2
4.646,67.8
4.647,70.2
4.648,65.0
4.649,70.6
4.65,67.6
4.651,66.4
4.652,71.2
4.6530000000000005,65.2
4.654,69.6
4.655,69.0
4.656,65.6
4.657,71.2
4.658,66.2
4.659,68.2
4.66,70.4
4.6610000000000005,65.2
4.662,70.6
4.663,67.2
4.664,67.0
4.665,71.0
4.666,65.2
4.667,69.8
4.668,68.4
4.6690000000000005,65.8
4.67,71.2
4.671,65.4
4.672,68.8
4.673,69.8
4.674,65.2
4.675,71.0
4.676,66.8
4.6770000000000005,67.4
4.678,70.8
4.679,65.2
4.68,70.4
4.681,68.2
4.682,66.2
4.683,71.2
4.684,65.4
4.6850000000000005,69.2
4.686,69.2
4.687,65.4
4.688,71.2
4.689,66.2
4.69,67.8
4.691,70.6
4.692,65.0
4.6930000000000005,70.6
4.694,67.6
4.695,66.6
4.696,71.4
4.697,65.0
4.698,69.6
4.699,69.0
4.7,65.8
4.7010000000000005,71.4
4.702,66.2
4.703,68.4
4.704,70.0
4.705,65.2
4.706,71.0
4.707,67.2
4.708,67.0
4.7090000000000005,70.6
4.71,65.0
4.711,70.2
4.712,68.4
4.713,65.8
4.714,71.4
4.715,65.8
4.716,68.8
4.7170000000000005,69.6
4.718,65.0
4.719,71.2
4.72,66.8
4.721,67.4
4.722,70.6
4.723,65.0
4.724,70.4
4.7250000000000005,68.0
4.726,66.4
4.727,71.2
4.728,65.4
4.729,69.2
4.73,69.2
4.731,65.4
4.732,71.2
4.7330000000000005,66.2
4.734,68.0
4.735,70.4
4.736,65.0
4.737,70.8
4.738,67.6
4.739,66.6
4.74,71.0
4.741,65.2
4.742,69.8
4.743,68.8
4.744,65.6
4.745,71.0
4.746,65.8
4.747,68.6
4.748,70.0
4.749,64.8
4.75,70.8
4.751,67.0
4.752,67.0
4.753,70.8
4.7540000000000004,65.0
4.755,70.0
4.756,68.2
4.757,65.8
4.758,71.2
4.759,65.6
4.76,68.8
4.761,69.6
4.7620000000000005,65.2
4.763,71.0
4.764,66.6
4.765,67.4
4.766,70.4
4.767,65.0
4.768,70.2
4.769,67.8
4.7700000000000005,66.4
4.771,71.2
4.772,65.4
4.773,69.2
4.774,69.2
4.775,65.4
4.776,71.0
4.777,66.2
4.7780000000000005,67.8
4.779,70.4
4.78,64.8
4.781,70.8
4.782,67.4
4.783,66.8
4.784,71.0
4.785,65.0
4.7860000000000005,69.8
4.787,68.6
4.788,65.6
4.789,71.2
4.79,66.0
4.791,68.4
4.792,70.0
4.793,65.2
4.7940000000000005,71.0
4.795,67.0
4.796,67.2
4.797,71.0
4.798,64.8
4.799,70.0
4.8,68.0
4.801,66.0
4.8020000000000005,71.2
4.803,65.6
4.804,69.0
4.805,69.8
4.806,65.2
4.807,71.2
4.808,66.4
4.809,67.6
4.8100000000000005,70.6
4.811,65.0
4.812,70.6
4.813,68.0
4.814,66.6
4.815,71.0
4.816,65.2
4.817,69.2
4.8180000000000005,69.0
4.819,65.4
4.82,71.4
4.821,66.2
4.822,68.0
4.823,70.4
4.824,65.0
4.825,70.6
4.8260000000000005,67.4
4.827,66.8
4.828,71.0
4.829,65.2
4.83,69.8
4.831,68.6
4.832,65.8
4.833,71.4
4.8340000000000005,65.8
4.835,68.6
4.836,70.0
4.837,65.4
4.838,70.8
4.839,66.8
4.84,67.2
4.841,70.8
4.8420000000000005,65.0
4.843,70.2
4.844,68.2
4.845,65.8
4.846,71.2
4.847,65.8
4.848,68.8
4.849,69.4
4.8500000000000005,65.2
4.851,71.2
4.852,66.4
4.853,67.6
4.854,70.6
4.855,64.8
4.856,70.4
4.857,67.8
4.8580000000000005,66.4
4.859,71.2
4.86,65.2
4.861,69.4
4.862,69.0
4.863,65.4
4.864,71.4
4.865,66.0
4.866,68.0
4.867,70.2
4.868,65.0
4.869,70.8
4.87,67.0
4.871,66.8
4.872,71.0
4.873,65.2
4.874,70.0
4.875,68.4
4.876,65.8
4.877,71.4
4.878,65.8
4.8790000000000004,68.6
4.88,69.8
4.881,65.2
4.882,71.0
4.883,66.8
4.884,67.4
4.885,70.8
4.886,65.0
4.8870000000000005,70.2
4.888,67.8
4.889,66.4
4.89,71.2
4.891,65.6
4.892,69.0
4.893,69.4
4.894,65.4
4.8950000000000005,71.0
4.896,66.4
4.897,67.8
4.898,70.4
4.899,65.0
4.9,70.6
4.901,67.4
4.902,66.6
4.9030000000000005,71.0
4.904,65.2
4.905,69.6
4.906,69.0
4.907,65.6
4.908,71.2
4.909,66.2
4.91,68.2
4.9110000000000005,70.0
4.912,65.0
4.913,70.8
4.914,67.2
4.915,67.0
4.916,70.8
4.917,65.0
4.918,70.0
4.9190000000000005,68.4
4.92,66.0
4.921,71.4
4.922,66.0
4.923,68.8
4.924,69.8
4.925,65.2
4.926,71.2
4.9270000000000005,66.8
4.928,67.4
4.929,70.6
4.93,65.0
4.931,70.2
4.932,68.0
4.933,66.4
4.934,71.2
4.9350000000000005,65.6
4.936,69.2
4.937,69.4
4.938,65.6
4.939,71.2
4.94,66.2
4.941,67.8
4.942,70.4
4.9430000000000005,64.8
4.944,70.6
4.945,67.6
4.946,66.6
4.947,70.8
4.948,65.2
4.949,69.6
4.95,68.8
4.9510000000000005,65.8
4.952,71.2
4.953,65.8
4.954,68.2
4.955,70.0
4.956,65.0
4.957,71.0
4.958,67.2
4.9590000000000005,67.0
4.96,71.0
4.961,65.2
4.962,70.0
4.963,68.4
4.964,65.8
4.965,71.2
4.966,65.6
4.9670000000000005,68.8
4.968,69.6
4.969,65.2
4.97,71.2
4.971,66.6
4.972,67.4
4.973,70.6
4.974,65.0
4.9750000000000005,70.4
4.976,67.8
4.977,66.2
4.978,71.2
4.979,65.4
4.98,69.2
4.981,69.2
4.982,65.2
4.9830000000000005,71.2
4.984,66.4
4.985,67.8
4.986,70.2
4.987,64.8
4.988,70.8
4.989,67.6
4.99,66.8
4.9910000000000005,71.2
4.992,65.2
4.993,69.8
4.994,68.8
4.995,65.6
4.996,71.2
4.997,66.0
4.998,68.2
4.999,70.0
5.0,65.0
5.001,70.8
5.002,67.2
5.003,67.0
5.0040000000000004,70.8
5.005,65.0
5.006,70.2
5.007,68.2
5.008,66.2
5.009,71.4
5.01,65.6
5.011,69.0
5.0120000000000005,69.6
5.013,65.2
5.014,71.0
5.015,66.4
5.016,67.6
5.017,70.4
5.018,65.0
5.019,70.4
5.0200000000000005,68.0
5.021,66.4
5.022,71.2
5.023,65.4
5.024,69.2
5.025,69.2
5.026,65.6
5.027,71.2
5.0280000000000005,66.2
5.029,68.0
5.03,70.2
5.031,65.2
5.032,70.4
5.033,67.2
5.034,66.4
5.035,71.0
5.0360000000000005,65.2
5.037,69.8
5.038,68.6
5.039,65.8
5.04,71.2
5.041,65.8
5.042,68.2
5.043,69.8
5.0440000000000005,65.2
5.045,71.0
5.046,67.0
5.047,67.2
5.048,70.8
5.049,65.2
5.05,70.2
5.051,68.0
5.0520000000000005,66.0
5.053,71.2
5.054,65.6
5.055,69.0
5.056,69.6
5.057,65.2
5.058,71.2
5.059,66.6
5.0600000000000005,67.6
5.061,70.8
5.062,65.0
5.063,70.2
5.064,67.8
5.065,66.4
5.066,71.2
5.067,65.4
5.0680000000000005,69.4
5.069,69.0
5.07,65.6
5.071,71.2
5.072,66.0
5.073,68.0
5.074,70.4
5.075,65.2
5.0760000000000005,70.8
5.077,67.2
5.078,66.8
5.079,71.0
5.08,65.2
5.081,69.6
5.082,68.8
5.083,65.8
5.0840000000000005,71.2
5.085,65.8
5.086,68.6
5.087,70.0
5.088,65.0
5.089,71.0
5.09,66.8
5.091,67.2
5.0920000000000005,70.8
5.093,65.2
5.094,70.2
5.095,68.2
5.096,66.0
5.097,71.2
5.098,65.4
5.099,69.0
5.1000000000000005,69.4
5.101,65.2
5.102,71.2
5.103,66.4
5.104,67.6
5.105,70.6
5.106,65.0
5.107,70.4
5.1080000000000005,67.6
5.109,66.4
5.11,71.2
5.111,65.4
5.112,69.2
5.113,68.8
5.114,65.6
5.115,71.4
5.1160000000000005,66.0
5.117,68.0
5.118,70.0
5.119,65.0
5.12,70.8
5.121,67.4
5.122,66.8
5.123,70.8
5.124,65.2
5.125,70.0
5.126,68.6
5.127,65.6
5.128,71.2
5.1290000000000004,65.6
5.13,68.4
5.131,69.8
5.132,65.2
5.133,71.2
5.134,66.8
5.135,67.2
5.136,70.8
5.1370000000000005,65.2
5.138,70.2
5.139,68.0
5.14,66.2
5.141,71.0
5.142,65.4
5.143,69.2
5.144,69.4
5.1450000000000005,65.2
5.146,71.0
5.147,66.4
5.148,67.8
5.149,70.4
5.15,65.0
5.151,70.6
5.152,67.6
5.1530000000000005,66.4
5.154,71.2
5.155,65.4
5.156,69.8
5.157,68.8
5.158,65.6
5.159,71.4
5.16,66.2
5.1610000000000005,68.2
5.162,70.0
5.163,65.2
5.164,70.8
5.165,67.2
5.166,67.0
5.167,71.0
5.168,65.0
5.1690000000000005,70.0
5.17,68.4
5.171,65.8
5.172,71.2
5.173,65.8
5.174,68.6
5.175,70.0
5.176,65.0
5.1770000000000005,71.0
5.178,66.8
5.179,67.2
5.18,70.6
5.181,64.8
5.182,70.4
5.183,68.0
5.184,66.0
5.1850000000000005,71.0
5.186,65.4
5.187,69.2
5.188,69.2
5.189,65.4
5.19,71.2
5.191,66.6
5.192,67.8
5.1930000000000005,70.6
5.194,64.8
5.195,70.6
5.196,67.4
5.197,66.6
5.198,70.8
5.199,65.2
5.2,69.8
5.2010000000000005,68.8
5.202,65.6
5.203,71.2
5.204,66.0
5.205,68.4
5.206,70.4
5.207,65.0
5.208,70.8
5.2090000000000005,67.4
5.21,67.2
5.211,70.8
5.212,65.2
5.213,70.0
5.214,68.4
5.215,65.8
5.216,71.4
5.2170000000000005,66.0
5.218,69.0
5.219,69.6
5.22,65.2
5.221,71.0
5.222,66.8
5.223,67.4
5.224,70.6
5.2250000000000005,65.0
5.226,70.2
5.227,67.8
5.228,66.2
5.229,71.4
5.23,65.6
5.231,69.2
5.232,69.2
5.2330000000000005,65.6
5.234,71.0
5.235,66.2
5.236,67.8
5.237,70.4
5.238,65.0
5.239,70.8
5.24,67.6
5.2410000000000005,66.8
5.242,71.0
5.243,65.4
5.244,69.6
5.245,68.6
5.246,65.8
5.247,71.2
5.248,66.2
5.249,68.2
5.25,70.0
5.251,65.0
5.252,70.8
5.253,67.0
5.2540000000000004,67.0
5.255,71.0
5.256,64.8
5.257,70.2
5.258,68.2
5.259,66.0
5.26,71.2
5.261,65.6
5.2620000000000005,68.8
5.263,69.6
5.264,65.2
5.265,70.8
5.266,66.4
5.267,67.4
5.268,70.8
5.269,65.0
5.2700000000000005,70.2
5.271,67.8
5.272,66.4
5.273,71.2
5.274,65.6
5.275,69.2
5.276,69.0
5.277,65.4
5.2780000000000005,71.2
5.279,66.4
5.28,68.0
5.281,70.4
5.282,65.2
5.283,70.6
5.284,67.4
5.285,66.8
5.2860000000000005,71.0
5.287,65.4
5.288,69.8
5.289,68.6
5.29,65.8
5.291,71.0
5.292,66.0
5.293,68.6
5.2940000000000005,70.0
5.295,65.2
5.296,71.0
5.297,66.8
5.298,67.2
5.299,70.8
5.3,65.2
5.301,70.0
5.3020000000000005,68.4
5.303,66.0
5.304,71.2
5.305,65.8
5.306,69.0
5.307,69.4
5.308,65.4
5.309,71.2
5.3100000000000005,66.6
5.311,67.4
5.312,70.6
5.313,65.2
5.314,70.4
5.315,67.8
5.316,66.4
5.317,71.2
5.3180000000000005,65.2
5.319,69.4
5.32,69.0
5.321,65.6
5.322,71.2
5.323,66.4
5.324,68.0
5.325,70.2
5.3260000000000005,65.0
5.327,70.6
5.328,67.4
5.329,66.8
5.33,71.0
5.331,65.4
5.332,69.8
5.333,68.6
5.3340000000000005,65.8
5.335,71.4
5.336,66.0
5.337,68.4
5.338,69.8
5.339,65.0
5.34,70.8
5.341,67.0
5.3420000000000005,67.4
5.343,70.4
5.344,65.0
5.345,70.4
5.346,68.0
5.347,66.2
5.348,71.0
5.349,65.6
5.3500000000000005,69.0
5.351,69.4
5.352,65.4
5.353,71.0
5.354,66.6
5.355,67.8
5.356,70.4
5.357,65.2
5.3580000000000005,70.4
5.359,67.8
5.36,66.4
5.361,71.0
5.362,65.4
5.363,69.0
5.364,69.0
5.365,65.8
5.3660000000000005,71.2
5.367,66.4
5.368,68.0
5.369,70.2
5.37,65.0
5.371,70.8
5.372,67.2
5.373,66.8
5.3740000000000006,70.8
5.375,65.2
5.376,70.0
5.377,68.4
5.378,65.8
5.3790000000000004,71.2
5.38,65.8
5.381,68.4
5.382,69.6
5.383,65.2
5.384,71.0
5.385,66.8
5.386,67.2
5.3870000000000005,70.6
5.388,65.2
5.389,70.2
5.39,68.0
5.391,66.2
5.392,71.0
5.393,65.6
5.394,68.8
5.3950000000000005,69.4
5.396,65.2
5.397,71.0
5.398,66.6
5.399,67.6
5.4,70.2
5.401,65.2
5.402,70.4
5.4030000000000005,67.6
5.404,66.4
5.405,71.2
5.406,65.2
5.407,69.6
5.408,69.0
5.409,65.6
5.41,71.0
5.4110000000000005,66.4
5.412,68.2
5.413,70.0
5.414,65.2
5.415,70.8
5.416,67.2
5.417,67.0
5.418,71.0
5.4190000000000005,65.2
5.42,69.8
5.421,68.6
5.422,66.0
5.423,71.4
5.424,65.6
5.425,68.6
5.426,69.8
5.4270000000000005,65.4
5.428,71.0
5.429,66.8
5.43,67.4
5.431,70.8
5.432,65.0
5.433,70.4
5.434,68.0
5.4350000000000005,66.2
5.436,71.4
5.437,65.6
5.438,69.0
5.439,69.4
5.44,65.6
5.441,71.0
5.442,66.4
5.4430000000000005,67.6
5.444,70.4
5.445,65.0
5.446,70.6
5.447,67.6
5.448,66.4
5.449,71.0
5.45,65.0
5.4510000000000005,69.4
5.452,68.8
5.453,65.8
5.454,71.2
5.455,66.0
5.456,68.2
5.457,70.2
5.458,65.2
5.4590000000000005,70.6
5.46,67.2
5.461,67.0
5.462,70.8
5.463,65.0
5.464,70.4
5.465,68.4
5.466,66.0
5.4670000000000005,71.0
5.468,65.8
5.469,68.6
5.47,69.8
5.471,65.4
5.472,71.2
5.473,66.6
5.474,67.4
5.4750000000000005,70.4
5.476,65.2
5.477,70.4
5.478,68.0
5.479,66.2
5.48,71.0
5.481,65.6
5.482,69.0
5.4830000000000005,69.2
5.484,65.4
5.485,71.2
5.486,66.4
5.487,68.0
5.488,70.4
5.489,65.0
5.49,70.8
5.4910000000000005,67.4
5.492,66.6
5.493,71.2
5.494,65.4
5.495,69.6
5.496,68.8
5.497,65.8
5.498,71.2
5.4990000000000006,65.8
5.5,68.4
5.501,70.0
5.502,65.4
5.503,70.8
5.5040000000000004,67.2
5.505,67.0
5.506,70.8
5.507,65.2
5.508,70.0
5.509,68.4
5.51,66.0
5.511,71.2
5.5120000000000005,65.6
5.513,68.6
5.514,69.8
5.515,65.2
5.516,71.0
5.517,66.6
5.518,67.6
5.519,70.8
5.5200000000000005,65.0
5.521,70.4
5.522,68.0
5.523,66.2
5.524,71.0
5.525,65.4
5.526,69.2
5.527,69.2
5.5280000000000005,65.6
5.529,71.2
5.53,66.2
5.531,67.8
5.532,70.4
5.533,65.2
5.534,70.6
5.535,67.6
5.5360000000000005,66.6
5.537,70.8
5.538,65.2
5.539,70.0
5.54,68.8
5.541,65.6
5.542,71.0
5.543,66.0
5.5440000000000005,68.2
5.545,69.8
5.546,65.2
5.547,70.6
5.548,67.2
5.549,67.2
5.55,70.8
5.551,65.2
5.5520000000000005,70.2
5.553,68.4
5.554,66.0
5.555,71.2
5.556,65.8
5.557,68.8
5.558,69.6
5.559,65.4
5.5600000000000005,71.0
5.561,66.4
5.562,67.6
5.563,70.8
5.564,65.2
5.565,70.4
5.566,68.0
5.567,66.2
5.5680000000000005,71.2
5.569,65.8
5.57,69.4
5.571,69.2
5.572,65.4
5.573,71.0
5.574,66.2
5.575,68.2
5.5760000000000005,70.0
5.577,65.2
5.578,70.8
5.579,67.4
5.58,66.8
5.581,70.8
5.582,65.2
5.583,69.8
5.5840000000000005,68.8
5.585,65.8
5.586,71.2
5.587,66.0
5.588,68.4
5.589,70.0
5.59,65.0
5.591,71.0
5.5920000000000005,67.0
5.593,67.2
5.594,70.8
5.595,65.0
5.596,70.2
5.597,68.4
5.598,65.8
5.599,71.0
5.6000000000000005,65.6
5.601,68.8
5.602,69.4
5.603,65.6
5.604,71.0
5.605,66.6
5.606,67.6
5.607,70.4
5.6080000000000005,65.2
5.609,70.2
5.61,67.8
5.611,66.4
5.612,71.0
5.613,65.4
5.614,69.2
5.615,69.0
5.6160000000000005,65.6
5.617,71.0
5.618,66.4
5.619,68.2
5.62,70.4
5.621,65.2
5.622,70.4
5.623,67.4
5.6240000000000006,66.8
5.625,71.0
5.626,65.2
5.627,69.8
5.628,68.6
5.6290000000000004,66.0
5.63,71.0
5.631,66.0
5.632,68.4
5.633,69.8
5.634,65.4
5.635,70.8
5.636,67.0
5.6370000000000005,67.2
5.638,70.6
5.639,65.2
5.64,70.0
5.641,68.0
5.642,66.2
5.643,71.0
5.644,65.8
5.6450000000000005,69.0
5.646,69.4
5.647,65.2
5.648,71.2
5.649,66.6
5.65,67.6
5.651,70.6
5.652,65.2
5.6530000000000005,70.6
5.654,67.6
5.655,66.6
5.656,71.0
5.657,65.2
5.658,69.4
5.659,68.8
5.66,65.8
5.6610000000000005,71.0
5.662,66.2
5.663,68.2
5.664,70.4
5.665,64.8
5.666,70.4
5.667,67.2
5.668,66.8
5.6690000000000005,71.0
5.67,65.4
5.671,69.6
5.672,68.6
5.673,65.8
5.674,71.2
5.675,65.8
5.676,68.8
5.6770000000000005,70.0
5.678,65.2
5.679,70.6
5.68,66.8
5.681,67.2
5.682,70.6
5.683,65.4
5.684,70.2
5.6850000000000005,68.2
5.686,66.2
5.687,70.8
5.688,65.8
5.689,69.0
5.69,69.4
5.691,65.6
5.692,71.0
5.6930000000000005,66.2
5.694,67.8
5.695,70.6
5.696,65.2
5.697,70.4
5.698,67.6
5.699,66.4
5.7,71.0
5.7010000000000005,65.6
5.702,69.4
5.703,68.8
5.704,65.6
5.705,71.6
5.706,66.0
5.707,68.2
5.708,70.0
5.7090000000000005,65.4
5.71,70.6
5.711,67.2
5.712,67.0
5.713,71.0
5.714,65.2
5.715,69.8
5.716,68.4
5.7170000000000005,66.0
5.718,71.4
5.719,65.8
5.72,68.6
5.721,69.6
5.722,65.4
5.723,71.0
5.724,66.8
5.7250000000000005,67.4
5.726,70.8
5.727,65.0
5.728,70.4
5.729,68.0
5.73,66.2
5.731,71.0
5.732,65.6
5.7330000000000005,69.0
5.734,69.2
5.735,65.4
5.736,70.8
5.737,66.4
5.738,68.0
5.739,70.4
5.74,65.2
5.7410000000000005,70.8
5.742,67.6
5.743,66.8
5.744,71.0
5.745,65.4
5.746,69.4
5.747,68.6
5.748,65.8
5.7490000000000006,71.4
5.75,66.0
5.751,68.2
5.752,70.0
5.753,65.2
5.7540000000000004,70.8
5.755,67.0
5.756,67.0
5.757000000000001,71.0
5.758,65.2
5.759,69.8
5.76,68.4
5.761,66.0
5.7620000000000005,71.2
5.763,65.8
5.764,68.8
5.765,69.6
5.766,65.2
5.767,70.8
5.768,66.8
5.769,67.4
5.7700000000000005,70.4
5.771,65.0
5.772,70.4
5.773,68.0
5.774,66.4
5.775,71.2
5.776,65.8
5.777,69.2
5.7780000000000005,69.2
5.779,65.2
5.78,71.0
5.781,66.4
5.782,68.0
5.783,70.4
5.784,65.2
5.785,70.6
5.7860000000000005,67.4
5.787,66.8
5.788,70.8
5.789,65.6
5.79,69.8
5.791,68.8
5.792,65.6
5.793,70.8
5.7940000000000005,66.2
5.795,68.4
5.796,69.8
5.797,65.2
5.798,70.6
5.799,67.2
5.8,67.0
5.801,70.8
5.8020000000000005,65.2
5.803,70.2
5.804,68.2
5.805,65.8
5.806,71.2
5.807,65.6
5.808,68.8
5.809,69.4
5.8100000000000005,65.4
5.811,71.0
5.812,66.8
5.813,67.4
5.814,70.6
5.815,65.2
5.816,70.4
5.817,68.0
5.8180000000000005,66.2
5.819,71.0
5.82,65.4
5.821,69.0
5.822,69.2
5.823,65.8
5.824,70.8
5.825,66.4
5.8260000000000005,67.8
5.827,70.4
5.828,65.2
5.829,70.6
5.83,67.4
5.831,66.8
5.832,71.0
5.833,65.6
5.8340000000000005,69.6
5.835,68.8
5.836,65.8
5.837,71.4
5.838,65.8
5.839,68.4
5.84,70.0
5.841,65.2
5.8420000000000005,70.8
5.843,67.2
5.844,67.2
5.845,70.6
5.846,65.2
5.847,70.2
5.848,68.2
5.849,66.2
5.8500000000000005,71.2
5.851,65.8
5.852,68.8
5.853,69.6
5.854,65.2
5.855,70.8
5.856,66.6
5.857,67.6
5.8580000000000005,70.6
5.859,65.0
5.86,70.4
5.861,67.8
5.862,66.4
5.863,71.0
5.864,65.4
5.865,69.4
5.8660000000000005,69.0
5.867,65.4
5.868,71.2
5.869,66.2
5.87,68.2
5.871,70.4
5.872,65.0
5.873,70.6
5.8740000000000006,67.4
5.875,67.0
5.876,71.0
5.877,65.2
5.878,69.6
5.8790000000000004,68.6
5.88,65.8
5.881,71.4
5.882000000000001,66.0
5.883,68.4
5.884,70.0
5.885,65.2
5.886,71.0
5.8870000000000005,67.0
5.888,67.2
5.889,70.8
5.89,65.4
5.891,70.0
5.892,68.4
5.893,66.0
5.894,71.2
5.8950000000000005,65.6
5.896,69.0
5.897,69.4
5.898,65.2
5.899,71.2
5.9,66.8
5.901,67.6
5.902,70.4
5.9030000000000005,65.2
5.904,70.4
5.905,67.8
5.906,66.4
5.907,71.0
5.908,65.4
5.909,69.2
5.91,69.0
5.9110000000000005,65.6
5.912,71.2
5.913,66.2
5.914,68.2
5.915,70.4
5.916,65.2
5.917,70.8
5.918,67.4
5.9190000000000005,66.8
5.92,71.0
5.921,65.4
5.922,69.8
5.923,68.6
5.924,65.8
5.925,71.4
5.926,66.0
5.9270000000000005,68.4
5.928,70.0
5.929,65.2
5.93,71.0
5.931,66.8
5.932,67.2
5.933,70.6
5.934,65.0
5.9350000000000005,70.4
5.936,68.2
5.937,66.0
5.938,71.2
5.939,65.8
5.94,69.0
5.941,69.2
5.942,65.4
5.9430000000000005,71.0
5.944,66.2
5.945,67.8
5.946,70.6
5.947,65.2
5.948,70.4
5.949,67.6
5.95,66.4
5.9510000000000005,71.2
5.952,65.6
5.953,69.6
5.954,68.8
5.955,65.6
5.956,71.2
5.957,66.2
5.958,68.0
5.9590000000000005,70.4
5.96,65.4
5.961,70.8
5.962,67.2
5.963,66.8
5.964,70.8
5.965,65.2
5.966,69.8
5.9670000000000005,68.4
5.968,65.8
5.969,71.2
5.97,65.8
5.971,68.4
5.972,69.8
5.973,65.2
5.974,71.0
5.9750000000000005,66.8
5.976,67.2
5.977,70.6
5.978,65.4
5.979,70.4
5.98,68.2
5.981,66.2
5.982,71.2
5.9830000000000005,65.8
5.984,69.0
5.985,69.2
5.986,65.6
5.987,71.2
5.988,66.6
5.989,68.0
5.99,70.2
5.9910000000000005,65.0
5.992,70.6
5.993,67.6
5.994,66.6
5.995,71.0
5.996,65.4
5.997,69.6
5.998,69.0
5.9990000000000006,65.8
6.0,71.0
6.001,66.0
6.002,68.2
6.003,69.8
6.0040000000000004,65.0
6.005,70.8
6.006,67.2
6.007000000000001,66.8
6.008,71.0
6.009,65.2
6.01,69.8
6.011,68.4
6.0120000000000005,66.0
6.013,71.0
6.014,65.8
6.015000000000001,68.8
6.016,69.8
6.017,65.2
6.018,70.8
6.019,66.6
6.0200000000000005,67.4
6.021,70.6
6.022,65.0
6.023,70.4
6.024,67.8
6.025,66.4
6.026,71.0
6.027,65.8
6.0280000000000005,69.2
6.029,69.2
6.03,65.4
6.031,71.0
6.032,66.6
6.033,67.8
6.034,70.4
6.035,65.4
6.0360000000000005,70.4
6.037,67.6
6.038,66.6
6.039,71.0
6.04,65.6
6.041,69.4
6.042,68.8
6.043,65.6
6.0440000000000005,71.2
6.045,66.0
6.046,68.2
6.047,70.2
6.048,65.2
6.049,71.0
6.05,67.0
6.051,67.0
6.0520000000000005,71.0
6.053,65.2
6.054,70.0
6.055,68.4
6.056,66.0
6.057,71.0
6.058,65.8
6.059,68.8
6.0600000000000005,69.6
6.061,65.2
6.062,70.8
6.063,66.8
6.064,67.6
6.065,70.6
6.066,65.4
6.067,70.2
6.0680000000000005,68.0
6.069,66.4
6.07,71.2
6.071,65.6
6.072,69.0
6.073,69.0
6.074,65.4
6.075,71.0
6.0760000000000005,66.2
6.077,68.0
6.078,70.4
6.079,65.2
6.08,70.8
6.081,67.6
6.082,66.8
6.083,70.8
6.0840000000000005,65.6
6.085,69.6
6.086,68.8
6.087,66.0
6.088,71.2
6.089,66.0
6.09,68.4
6.091,70.0
6.0920000000000005,65.2
6.093,70.8
6.094,67.2
6.095,67.2
6.096,70.6
6.097,65.2
6.098,70.0
6.099,68.2
6.1000000000000005,66.0
6.101,71.2
6.102,65.6
6.103,68.8
6.104,69.4
6.105,65.4
6.106,70.8
6.107,66.8
6.1080000000000005,67.6
6.109,70.6
6.11,65.2
6.111,70.4
6.112,67.8
6.113,66.4
6.114,71.2
6.115,65.8
6.1160000000000005,69.2
6.117,69.0
6.118,65.6
6.119,71.0
6.12,66.4
6.121,68.2
6.122,70.4
6.123,65.4
6.1240000000000006,70.8
6.125,67.4
6.126,66.8
6.127,71.0
6.128,65.4
6.1290000000000004,69.8
6.13,68.6
6.131,65.8
6.132000000000001,70.8
6.133,66.0
6.134,68.4
6.135,69.8
6.136,65.4
6.1370000000000005,70.8
6.138,67.2
6.139,67.4
6.140000000000001,70.6
6.141,65.2
6.142,69.8
6.143,68.0
6.144,66.2
6.1450000000000005,71.2
6.146,65.8
6.147,69.0
6.148,69.4
6.149,65.4
6.15,71.0
6.151,66.8
6.152,67.4
6.1530000000000005,70.6
6.154,65.2
6.155,70.2
6.156,67.6
6.157,66.6
6.158,71.0
6.159,65.8
6.16,69.2
6.1610000000000005,69.0
6.162,65.6
6.163,71.0
6.164,66.4
6.165,68.0
6.166,70.2
6.167,65.4
6.168,70.6
6.1690000000000005,67.4
6.17,67.0
6.171,70.8
6.172,65.4
6.173,69.8
6.174,68.8
6.175,65.8
6.176,71.4
6.1770000000000005,65.8
6.178,68.6
6.179,70.0
6.18,65.2
6.181,71.0
6.182,66.6
6.183,67.2
6.184,70.8
6.1850000000000005,65.4
6.186,70.0
6.187,68.2
6.188,66.0
6.189,71.2
6.19,65.8
6.191,68.8
6.192,69.2
6.1930000000000005,65.6
6.194,71.0
6.195,66.6
6.196,67.6
6.197,70.6
6.198,65.2
6.199,70.4
6.2,67.8
6.2010000000000005,66.4
6.202,70.8
6.203,65.4
6.204,69.4
6.205,69.0
6.206,65.6
6.207,71.2
6.208,66.2
6.2090000000000005,68.2
6.21,70.4
6.211,65.2
6.212,70.8
6.213,67.2
6.214,66.8
6.215,71.0
6.216,65.2
6.2170000000000005,69.8
6.218,68.4
6.219,65.8
6.22,71.2
6.221,66.0
6.222,68.6
6.223,69.8
6.224,65.2
6.2250000000000005,70.8
6.226,66.8
6.227,67.2
6.228,70.8
6.229,65.2
6.23,70.2
6.231,68.0
6.232,66.4
6.2330000000000005,71.0
6.234,65.6
6.235,69.0
6.236,69.4
6.237,65.6
6.238,71.0
6.239,66.4
6.24,67.8
6.2410000000000005,70.2
6.242,64.8
6.243,70.6
6.244,67.6
6.245,66.6
6.246,71.0
6.247,65.4
6.248,69.6
6.2490000000000006,69.0
6.25,65.8
6.251,71.0
6.252,66.2
6.253,68.2
6.2540000000000004,70.0
6.255,65.0
6.256,70.8
6.257000000000001,67.2
6.258,66.8
6.259,70.8
6.26,65.2
6.261,69.8
6.2620000000000005,68.6
6.263,65.8
6.264,71.2
6.265000000000001,65.6
6.266,68.6
6.267,69.8
6.268,65.2
6.269,70.8
6.2700000000000005,66.8
6.271,67.4
6.272,70.6
6.273,65.0
6.274,70.2
6.275,68.0
6.276,66.2
6.277,71.2
6.2780000000000005,65.8
6.279,69.2
6.28,69.4
6.281,65.2
6.282,71.2
6.283,66.6
6.284,67.8
6.285,70.6
6.2860000000000005,65.2
6.287,70.4
6.288,67.6
6.289,66.6
6.29,71.0
6.291,65.4
6.292,69.6
6.293,69.0
6.2940000000000005,65.6
6.295,71.4
6.296,66.0
6.297,68.2
6.298,70.2
6.299,65.2
6.3,70.6
6.301,67.2
6.3020000000000005,67.0
6.303,70.8
6.304,65.2
6.305,70.0
6.306,68.6
6.307,66.0
6.308,71.2
6.309,65.8
6.3100000000000005,68.8
6.311,69.6
6.312,65.2
6.313,71.0
6.314,66.8
6.315,67.2
6.316,70.6
6.317,65.2
6.3180000000000005,70.4
6.319,68.0
6.32,66.2
6.321,71.2
6.322,65.8
6.323,69.2
6.324,69.2
6.325,65.4
6.3260000000000005,71.2
6.327,66.2
6.328,67.8
6.329,70.2
6.33,64.8
6.331,70.6
6.332,67.6
6.333,66.6
6.3340000000000005,71.0
6.335,65.4
6.336,69.4
6.337,68.8
6.338,65.6
6.339,71.2
6.34,65.8
6.341,68.2
6.3420000000000005,70.0
6.343,65.4
6.344,70.8
6.345,67.2
6.346,67.0
6.347,70.8
6.348,65.4
6.349,70.0
6.3500000000000005,68.4
6.351,66.2
6.352,71.2
6.353,65.8
6.354,68.8
6.355,69.8
6.356,65.4
6.357,71.0
6.3580000000000005,66.6
6.359,67.6
6.36,70.6
6.361,65.2
6.362,70.4
6.363,67.8
6.364,66.2
6.365,71.0
6.3660000000000005,65.6
6.367,69.2
6.368,69.2
6.369,65.4
6.37,71.2
6.371,66.4
6.372,68.0
6.373,70.2
6.3740000000000006,65.2
6.375,70.8
6.376,67.4
6.377,66.8
6.378,71.2
6.3790000000000004,65.4
6.38,69.6
6.381,68.8
6.382000000000001,65.6
6.383,71.2
6.384,66.2
6.385,68.4
6.386,70.0
6.3870000000000005,65.0
6.388,71.0
6.389,67.0
6.390000000000001,67.0
6.391,70.8
6.392,65.0
6.393,70.0
6.394,68.4
6.3950000000000005,66.2
6.396,71.2
6.397,65.8
6.398000000000001,68.8
6.399,69.6
6.4,65.2
6.401,71.0
6.402,66.6
6.4030000000000005,67.6
6.404,70.6
6.405,65.2
6.406,70.6
6.407,68.0
6.408,66.4
6.409,71.2
6.41,65.6
6.4110000000000005,69.2
6.412,69.2
6.413,65.4
6.414,71.0
6.415,66.4
6.416,68.0
6.417,70.4
6.418,65.2
6.4190000000000005,70.6
6.42,67.2
6.421,66.8
6.422,71.0
6.423,65.2
6.424,69.8
6.425,68.8
6.426,65.8
6.4270000000000005,71.2
6.428,65.8
6.429,68.2
6.43,70.0
6.431,65.4
6.432,70.8
6.433,67.0
6.434,67.2
6.4350000000000005,70.8
6.436,65.2
6.437,70.0
6.438,68.2
6.439,65.8
6.44,71.2
6.441,65.6
6.442,68.8
6.4430000000000005,69.8
6.444,65.2
6.445,71.0
6.446,66.8
6.447,67.6
6.448,70.6
6.449,64.8
6.45,70.4
6.4510000000000005,68.0
6.452,66.4
6.453,71.2
6.454,65.4
6.455,69.2
6.456,69.0
6.457,65.6
6.458,71.0
6.4590000000000005,66.2
6.46,68.0
6.461,70.4
6.462,65.0
6.463,70.8
6.464,67.4
6.465,66.8
6.466,71.0
6.4670000000000005,65.2
6.468,69.6
6.469,68.6
6.47,65.6
6.471,71.2
6.472,65.8
6.473,68.4
6.474,69.8
6.4750000000000005,65.2
6.476,70.8
6.477,67.0
6.478,67.4
6.479,70.6
6.48,65.2
6.481,70.0
6.482,68.4
6.4830000000000005,66.2
6.484,71.0
6.485,65.6
6.486,68.8
6.487,69.6
6.488,65.2
6.489,71.0
6.49,66.4
6.4910000000000005,67.6
6.492,70.4
6.493,65.2
6.494,70.6
6.495,67.6
6.496,66.4
6.497,71.4
6.498,65.4
6.4990000000000006,69.4
6.5,69.0
6.501,65.8
6.502,71.2
6.503,66.2
6.5040000000000004,68.0
6.505,70.2
6.506,65.2
6.507000000000001,70.8
6.508,67.2
6.509,66.8
6.51,71.0
6.511,65.4
6.5120000000000005,70.0
6.513,68.4
6.514,66.0
6.515000000000001,71.0
6.516,66.0
6.517,68.4
6.518,69.8
6.519,65.2
6.5200000000000005,71.0
6.521,66.8
6.522,67.4
6.523000000000001,70.8
6.524,65.2
6.525,70.4
6.526,68.2
6.527,66.0
6.5280000000000005,71.2
6.529,65.8
6.53,69.0
6.531,69.4
6.532,65.4
6.533,71.2
6.534,66.4
6.535,67.8
6.5360000000000005,70.4
6.537,65.0
6.538,70.2
6.539,67.6
6.54,66.6
6.541,71.2
6.542,65.2
6.543,69.4
6.5440000000000005,69.0
6.545,65.8
6.546,71.4
6.547,66.2
6.548,68.4
6.549,70.2
6.55,65.0
6.551,70.6
6.5520000000000005,67.2
6.553,67.2
6.554,71.0
6.555,65.4
6.556,69.8
6.557,68.4
6.558,66.0
6.559,71.2
6.5600000000000005,65.8
6.561,68.8
6.562,69.8
6.563,65.2
6.564,71.0
6.565,66.6
6.566,67.6
6.567,70.4
6.5680000000000005,65.4
6.569,70.0
6.57,68.0
6.571,66.0
6.572,71.2
6.573,65.6
6.574,69.2
6.575,69.4
6.5760000000000005,65.4
6.577,71.2
6.578,66.2
6.579,67.8
6.58,70.2
6.581,65.2
6.582,70.6
6.583,67.6
6.5840000000000005,66.4
6.585,70.8
6.586,65.6
6.587,69.4
6.588,68.8
6.589,65.6
6.59,71.2
6.591,65.8
6.5920000000000005,68.2
6.593,70.0
6.594,65.2
6.595,71.0
6.596,67.2
6.597,67.0
6.598,70.8
6.599,65.0
6.6000000000000005,70.0
6.601,68.4
6.602,66.0
6.603,71.4
6.604,65.6
6.605,68.6
6.606,69.6
6.607,65.2
6.6080000000000005,71.0
6.609,66.6
6.61,67.6
6.611,70.6
6.612,64.8
6.613,70.4
6.614,67.8
6.615,66.2
6.6160000000000005,71.0
6.617,65.6
6.618,69.2
6.619,69.4
6.62,65.4
6.621,71.2
6.622,66.4
6.623,68.0
6.6240000000000006,70.4
6.625,65.0
6.626,70.6
6.627,67.6
6.628,66.6
6.6290000000000004,71.0
6.63,65.0
6.631,69.6
6.632000000000001,68.8
6.633,65.8
6.634,71.2
6.635,66.0
6.636,68.2
6.6370000000000005,70.2
6.638,65.0
6.639,70.8
6.640000000000001,67.0
6.641,67.2
6.642,70.8
6.643,65.4
6.644,70.2
6.6450000000000005,68.4
6.646,66.2
6.647,71.0
6.648000000000001,65.8
6.649,68.8
6.65,69.6
6.651,65.2
6.652,71.0
6.6530000000000005,66.6
6.654,67.4
6.655,70.4
6.656000000000001,65.4
6.657,70.4
6.658,67.8
6.659,66.2
6.66,71.4
6.6610000000000005,65.4
6.662,69.2
6.663,69.2
6.664,65.8
6.665,71.0
6.666,66.2
6.667,68.0
6.668,70.2
6.6690000000000005,65.0
6.67,70.6
6.671,67.4
6.672,66.6
6.673,71.0
6.674,65.2
6.675,69.6
6.676,68.8
6.6770000000000005,65.6
6.678,71.2
6.679,66.0
6.68,68.4
6.681,70.2
6.682,65.2
6.683,70.8
6.684,67.2
6.6850000000000005,67.0
6.686,70.6
6.687,65.0
6.688,70.0
6.689,68.6
6.69,66.0
6.691,71.2
6.692,66.0
6.6930000000000005,68.8
6.694,69.6
6.695,65.4
6.696,71.0
6.697,66.6
6.698,67.4
6.699,70.6
6.7,65.0
6.7010000000000005,70.4
6.702,67.8
6.703,66.2
6.704,71.2
6.705,65.4
6.706,69.2
6.707,69.2
6.708,65.6
6.7090000000000005,71.2
6.71,66.4
6.711,67.8
6.712,70.4
6.713,65.0
6.714,70.8
6.715,67.6
6.716,66.6
6.7170000000000005,71.0
6.718,65.2
6.719,69.6
6.72,68.8
6.721,65.8
6.722,71.0
6.723,66.0
6.724,68.4
6.7250000000000005,70.0
6.726,65.0
6.727,71.0
6.728,66.8
6.729,67.2
6.73,70.8
6.731,65.2
6.732,70.4
6.7330000000000005,68.2
6.734,66.0
6.735,71.2
6.736,65.6
6.737,68.8
6.738,69.8
6.739,65.4
6.74,71.0
6.7410000000000005,66.6
6.742,67.6
6.743,70.4
6.744,65.2
6.745,70.4
6.746,67.8
6.747,66.4
6.748,71.2
6.7490000000000006,65.4
6.75,69.2
6.751,69.0
6.752,65.6
6.753,71.2
6.7540000000000004,66.0
6.755,68.0
6.756,70.2
6.757000000000001,65.2
6.758,70.8
6.759,67.2
6.76,66.8
6.761,71.0
6.7620000000000005,65.2
6.763,69.8
6.764,68.8
6.765000000000001,65.8
6.766,71.2
6.767,65.8
6.768,68.4
6.769,69.8
6.7700000000000005,65.2
6.771,70.8
6.772,67.0
6.773000000000001,67.2
6.774,71.0
6.775,65.0
6.776,70.2
6.777,68.2
6.7780000000000005,66.2
6.779,71.2
6.78,65.8
6.781000000000001,69.0
6.782,69.4
6.783,65.2
6.784,71.2
6.785,66.4
6.7860000000000005,67.6
6.787,70.4
6.788,64.8
6.789,70.4
6.79,67.8
6.791,66.6
6.792,71.0
6.793,65.4
6.7940000000000005,69.2
6.795,69.0
6.796,65.4
6.797,71.0
6.798,66.4
6.799,68.2
6.8,70.4
6.801,65.0
6.8020000000000005,70.8
6.803,67.4
6.804,66.8
6.805,71.0
6.806,65.4
6.807,69.8
6.808,68.4
6.809,65.8
6.8100000000000005,71.2
6.811,65.8
6.812,68.6
6.813,70.0
6.814,65.2
6.815,71.0
6.816,66.8
6.817,67.4
6.8180000000000005,70.8
6.819,65.2
6.82,70.2
6.821,68.2
6.822,66.2
6.823,71.2
6.824,65.4
6.825,69.0
6.8260000000000005,69.6
6.827,65.4
6.828,71.0
6.829,66.4
6.83,67.8
6.831,70.6
6.832,65.0
6.833,70.4
6.8340000000000005,67.6
6.835,66.4
6.836,71.0
6.837,65.2
6.838,69.6
6.839,69.0
6.84,65.6
6.841,71.0
6.8420000000000005,66.2
6.843,68.2
6.844,70.4
6.845,65.0
6.846,70.8
6.847,67.2
6.848,66.8
6.849,70.8
6.8500000000000005,65.2
6.851,70.0
6.852,68.6
6.853,65.8
6.854,71.0
6.855,65.8
6.856,68.6
6.857,70.0
6.8580000000000005,65.4
6.859,71.0
6.86,66.8
6.861,67.4
6.862,70.8
6.863,65.2
6.864,70.2
6.865,68.2
6.8660000000000005,66.2
6.867,71.2
6.868,65.6
6.869,69.0
6.87,69.2
6.871,65.4
6.872,71.2
6.873,66.4
6.8740000000000006,67.8
6.875,70.2
6.876,65.2
6.877,70.4
6.878,67.4
6.8790000000000004,66.6
6.88,71.2
6.881,65.2
6.882000000000001,69.4
6.883,69.0
6.884,65.6
6.885,71.2
6.886,66.2
6.8870000000000005,68.2
6.888,70.2
6.889,65.2
6.890000000000001,71.0
6.891,67.2
6.892,67.0
6.893,71.0
6.894,65.2
6.8950000000000005,69.8
6.896,68.4
6.897,66.0
6.898000000000001,71.2
6.899,65.8
6.9,69.0
6.901,69.6
6.902,65.2
6.9030000000000005,71.0
6.904,66.8
6.905,67.6
6.906000000000001,70.8
6.907,65.0
6.908,70.4
6.909,67.8
6.91,66.2
6.9110000000000005,71.2
6.912,65.6
6.913,69.2
6.914,69.2
6.915,65.6
6.916,71.2
6.917,66.2
6.918,67.8
6.9190000000000005,70.4
6.92,65.2
6.921,70.6
6.922,67.6
6.923,66.6
6.924,70.8
6.925,65.4
6.926,69.8
6.9270000000000005,68.8
6.928,65.4
6.929,71.2
6.93,65.8
6.931,68.2
6.932,69.8
6.933,65.0
6.934,70.8
6.9350000000000005,66.8
6.936,67.0
6.937,71.0
6.938,65.2
6.939,69.8
6.94,68.4
6.941,66.2
6.942,71.2
6.9430000000000005,65.8
6.944,68.8
6.945,69.8
6.946,65.2
6.947,71.0
6.948,66.6
6.949,67.4
6.95,70.8
6.9510000000000005,65.0
6.952,70.4
6.953,68.0
6.954,66.2
6.955,71.4
6.956,65.4
6.957,69.2
6.958,69.2
6.9590000000000005,65.4
6.96,71.2
6.961,66.4
6.962,68.0
6.963,70.4
6.964,65.2
6.965,70.6
6.966,67.6
6.9670000000000005,66.6
6.968,71.0
6.969,65.2
6.97,69.8
6.971,68.8
6.972,65.8
6.973,71.4
6.974,65.8
6.9750000000000005,68.4
6.976,70.0
6.977,65.2
6.978,71.0
6.979,66.8
6.98,67.2
6.981,70.8
6.982,65.0
6.9830000000000005,69.8
6.984,68.4
6.985,66.2
6.986,71.2
6.987,65.6
6.988,68.8
6.989,69.6
6.99,65.2
6.9910000000000005,71.2
6.992,66.6
6.993,67.4
6.994,70.6
6.995,65.0
6.996,70.4
6.997,67.8
6.998,66.4
6.9990000000000006,71.4
7.0,65.4
7.001,69.4
7.002,69.2
7.003,65.6
7.0040000000000004,71.2
7.005,66.2
7.006,68.0
7.007000000000001,70.4
7.008,65.0
7.009,70.6
7.01,67.4
7.011,66.6
7.0120000000000005,70.8
7.013,65.4
7.014,69.8
7.015000000000001,68.6
7.016,65.6
7.017,71.4
7.018,66.0
7.019,68.4
7.0200000000000005,69.8
7.021,65.2
7.022,70.8
7.023000000000001,67.0
7.024,67.2
7.025,71.0
7.026,65.0
7.027,70.2
7.0280000000000005,68.2
7.029,66.2
7.03,71.4
7.031000000000001,65.6
7.032,68.8
7.033,69.4
7.034,65.2
7.035,71.0
7.0360000000000005,66.8
7.037,67.6
7.038,70.4
7.039000000000001,65.2
7.04,70.6
7.041,67.8
7.042,66.4
7.043,71.0
7.0440000000000005,65.4
7.045,69.2
7.046,69.0
7.047,65.4
7.048,71.2
7.049,66.2
7.05,68.0
7.051,70.2
7.0520000000000005,64.8
7.053,70.8
7.054,67.4
7.055,66.8
7.056,71.0
7.057,65.0
7.058,69.8
7.059,68.6
7.0600000000000005,65.8
7.061,71.4
7.062,65.8
7.063,68.4
7.064,69.8
7.065,65.0
7.066,70.8
7.067,66.8
7.0680000000000005,67.2
7.069,70.8
7.07,65.0
7.071,70.2
7.072,68.2
7.073,65.8
7.074,71.4
7.075,65.6
7.0760000000000005,69.0
7.077,69.4
7.078,65.2
7.079,71.0
7.08,66.6
7.081,67.8
7.082,70.6
7.083,64.8
7.0840000000000005,70.6
7.085,67.6
7.086,66.2
7.087,71.2
7.088,65.6
7.089,69.4
7.09,69.0
7.091,65.8
7.0920000000000005,71.0
7.093,66.2
7.094,68.0
7.095,70.4
7.096,65.0
7.097,70.6
7.098,67.2
7.099,67.0
7.1000000000000005,71.0
7.101,65.2
7.102,69.8
7.103,68.4
7.104,65.8
7.105,71.4
7.106,65.8
7.107,68.4
7.1080000000000005,69.8
7.109,65.2
7.11,71.0
7.111,66.8
7.112,67.2
7.113,70.6
7.114,65.0
7.115,70.2
7.1160000000000005,68.0
7.117,66.2
7.118,71.2
7.119,65.6
7.12,68.8
7.121,69.4
7.122,65.2
7.123,71.0
7.1240000000000006,66.6
7.125,67.6
7.126,70.4
7.127,65.0
7.128,70.6
7.1290000000000004,67.6
7.13,66.2
7.131,70.8
7.132000000000001,65.2
7.133,69.4
7.134,69.0
7.135,65.6
7.136,71.2
7.1370000000000005,66.2
7.138,68.2
7.139,70.2
7.140000000000001,65.0
7.141,70.8
7.142,67.2
7.143,66.8
7.144,71.0
7.1450000000000005,65.0
7.146,69.8
7.147,68.4
7.148000000000001,66.0
7.149,71.2
7.15,65.6
7.151,68.8
7.152,69.8
7.1530000000000005,65.2
7.154,71.0
7.155,67.0
7.156000000000001,67.4
7.157,70.8
7.158,65.0
7.159,70.4
7.16,68.0
7.1610000000000005,66.2
7.162,71.4
7.163,65.4
7.164000000000001,69.0
7.165,69.2
7.166,65.4
7.167,71.2
7.168,66.4
7.1690000000000005,67.8
7.17,70.4
7.171,65.0
7.172,70.4
7.173,67.6
7.174,66.4
7.175,71.2
7.176,65.4
7.1770000000000005,69.6
7.178,68.8
7.179,65.6
7.18,71.4
7.181,66.0
7.182,68.2
7.183,70.2
7.184,65.0
7.1850000000000005,70.8
7.186,67.0
7.187,67.0
7.188,70.8
7.189,65.2
7.19,70.0
7.191,68.4
7.192,65.8
7.1930000000000005,71.2
7.194,65.8
7.195,68.8
7.196,69.8
7.197,65.4
7.198,71.0
7.199,66.6
7.2,67.4
7.2010000000000005,70.6
7.202,65.2
7.203,70.4
7.204,68.2
7.205,66.2
7.206,71.2
7.207,65.4
7.208,69.2
7.2090000000000005,69.2
7.21,65.4
7.211,71.0
7.212,66.4
7.213,67.8
7.214,70.4
7.215,65.0
7.216,70.6
7.2170000000000005,67.6
7.218,66.6
7.219,71.0
7.22,65.2
7.221,69.6
7.222,69.0
7.223,65.8
7.224,71.2
7.2250000000000005,65.8
7.226,68.2
7.227,70.0
7.228,65.0
7.229,70.8
7.23,67.2
7.231,67.0
7.232,70.8
7.2330000000000005,65.0
7.234,69.8
7.235,68.2
7.236,65.8
7.237,71.2
7.238,65.8
7.239,68.8
7.24,69.6
7.2410000000000005,65.0
7.242,71.0
7.243,66.6
7.244,67.2
7.245,70.6
7.246,65.0
7.247,70.4
7.248,68.0
7.2490000000000006,66.2
7.25,71.0
7.251,65.2
7.252,69.2
7.253,69.4
7.2540000000000004,65.4
7.255,71.2
7.256,66.2
7.257000000000001,67.8
7.258,70.4
7.259,65.0
7.26,70.4
7.261,67.4
7.2620000000000005,66.4
7.263,71.2
7.264,65.0
7.265000000000001,69.6
7.266,68.8
7.267,65.8
7.268,71.2
7.269,66.0
7.2700000000000005,68.6
7.271,69.8
7.272,65.0
7.273000000000001,70.8
7.274,67.0
7.275,67.0
7.276,70.8
7.277,65.0
7.2780000000000005,70.0
7.279,68.4
7.28,66.0
7.281000000000001,71.0
7.282,66.0
7.283,69.0
7.284,69.4
7.285,65.2
7.2860000000000005,71.2
7.287,66.6
7.288,67.6
7.289000000000001,70.6
7.29,64.8
7.291,70.4
7.292,68.0
7.293,66.4
7.2940000000000005,71.2
7.295,65.4
7.296,69.2
7.297,69.2
7.298,65.8
7.299,71.4
7.3,66.2
7.301,67.8
7.3020000000000005,70.4
7.303,65.2
7.304,70.8
7.305,67.4
7.306,66.6
7.307,71.0
7.308,65.4
7.309,69.6
7.3100000000000005,68.8
7.311,65.8
7.312,71.2
7.313,65.8
7.314,68.4
7.315,70.0
7.316,65.2
7.317,71.0
7.3180000000000005,66.8
7.319,67.2
7.32,70.6
7.321,65.2
7.322,70.4
7.323,68.0
7.324,66.0
7.325,71.2
7.3260000000000005,65.8
7.327,69.0
7.328,69.4
7.329,65.2
7.33,70.8
7.331,66.4
7.332,67.4
7.333,70.6
7.3340000000000005,65.2
7.335,70.2
7.336,67.8
7.337,66.4
7.338,71.2
7.339,65.4
7.34,69.2
7.341,69.2
7.3420000000000005,65.4
7.343,71.2
7.344,66.0
7.345,68.2
7.346,70.2
7.347,65.2
7.348,70.4
7.349,67.4
7.3500000000000005,66.8
7.351,71.2
7.352,65.2
7.353,69.8
7.354,68.4
7.355,65.6
7.356,71.2
7.357,65.8
7.3580000000000005,68.4
7.359,69.8
7.36,65.4
7.361,70.8
7.362,66.8
7.363,67.2
7.364,71.0
7.365,65.0
7.3660000000000005,70.2
7.367,68.2
7.368,66.2
7.369,71.2
7.37,65.6
7.371,69.0
7.372,69.4
7.373,65.4
7.3740000000000006,71.2
7.375,66.6
7.376,67.6
7.377,70.4
7.378,65.0
7.3790000000000004,70.4
7.38,67.6
7.381,66.4
7.382000000000001,70.8
7.383,65.4
7.384,69.4
7.385,69.0
7.386,65.4
7.3870000000000005,71.4
7.388,66.2
7.389,68.2
7.390000000000001,70.0
7.391,65.0
7.392,70.8
7.393,67.2
7.394,66.6
7.3950000000000005,71.0
7.396,65.2
7.397,70.0
7.398000000000001,68.4
7.399,65.8
7.4,71.2
7.401,66.0
7.402,68.4
7.4030000000000005,70.0
7.404,65.2
7.405,71.2
7.406000000000001,66.8
7.407,67.4
7.408,70.8
7.409,65.2
7.41,70.4
7.4110000000000005,68.2
7.412,66.2
7.413,71.2
7.414000000000001,65.4
7.415,69.0
7.416,69.6
7.417,65.4
7.418,71.0
7.4190000000000005,66.2
7.42,67.8
7.421,70.6
7.422000000000001,65.0
7.423,70.4
7.424,67.8
7.425,66.4
7.426,71.2
7.4270000000000005,65.2
7.428,69.6
7.429,69.0
7.43,65.4
7.431,71.4
7.432,66.0
7.433,68.0
7.434,70.0
7.4350000000000005,65.0
7.436,70.8
7.437,67.2
7.438,67.0
7.439,70.8
7.44,65.0
7.441,69.8
7.442,68.4
7.4430000000000005,65.8
7.444,71.2
7.445,65.8
7.446,68.6
7.447,69.6
7.448,65.0
7.449,71.0
7.45,66.8
7.4510000000000005,67.4
7.452,71.0
7.453,65.0
7.454,70.2
7.455,68.0
7.456,66.2
7.457,71.2
7.458,65.4
7.4590000000000005,69.0
7.46,69.4
7.461,65.2
7.462,71.0
7.463,66.2
7.464,67.6
7.465,70.6
7.466,65.2
7.4670000000000005,70.4
7.468,67.6
7.469,66.2
7.47,71.2
7.471,65.0
7.472,69.8
7.473,68.8
7.474,65.8
7.4750000000000005,71.2
7.476,65.8
7.477,68.4
7.478,70.0
7.479,65.0
7.48,71.0
7.481,67.2
7.482,66.8
7.4830000000000005,71.0
7.484,65.2
7.485,70.0
7.486,68.6
7.487,66.0
7.488,71.2
7.489,65.8
7.49,68.6
7.4910000000000005,69.8
7.492,65.2
7.493,71.2
7.494,66.8
7.495,67.2
7.496,70.8
7.497,65.0
7.498,70.2
7.4990000000000006,68.2
7.5,66.2
7.501,71.2
7.502,65.4
7.503,69.2
7.5040000000000004,69.4
7.505,65.4
7.506,71.2
7.507000000000001,66.6
7.508,67.8
7.509,70.4
7.51,65.0
7.511,70.6
7.5120000000000005,67.4
7.513,66.6
7.514,71.2
7.515000000000001,65.2
7.516,69.6
7.517,68.8
7.518,65.6
7.519,71.4
7.5200000000000005,66.0
7.521,68.4
7.522,69.8
7.523000000000001,65.2
7.524,70.8
7.525,67.2
7.526,67.0
7.527,70.8
7.5280000000000005,65.0
7.529,70.0
7.53,68.4
7.531000000000001,66.0
7.532,71.4
7.533,65.4
7.534,68.8
7.535,69.6
7.5360000000000005,65.4
7.537,71.0
7.538,66.6
7.539000000000001,67.6
7.54,70.4
7.541,65.2
7.542,70.2
7.543,67.8
7.5440000000000005,66.2
7.545,71.2
7.546,65.2
7.547000000000001,69.2
7.548,69.2
7.549,65.6
7.55,71.2
7.551,66.4
7.5520000000000005,68.0
7.553,70.4
7.554,65.0
7.555,70.6
7.556,67.6
7.557,66.6
7.558,71.0
7.559,65.2
7.5600000000000005,69.6
7.561,68.8
7.562,65.8
7.563,71.2
7.564,66.0
7.565,68.4
7.566,70.2
7.567,65.0
7.5680000000000005,70.8
7.569,67.0
7.57,67.0
7.571,70.8
7.572,65.0
7.573,70.0
7.574,68.2
7.575,66.0
7.5760000000000005,71.4
7.577,65.4
7.578,68.8
7.579,69.8
7.58,65.2
7.581,71.2
7.582,66.4
7.583,67.4
7.5840000000000005,70.6
7.585,65.0
7.586,70.4
7.587,67.8
7.588,66.2
7.589,71.0
7.59,65.4
7.591,69.2
7.5920000000000005,69.0
7.593,65.4
7.594,71.0
7.595,66.2
7.596,68.0
7.597,70.2
7.598,65.2
7.599,70.8
7.6000000000000005,67.4
7.601,66.8
7.602,71.0
7.603,65.2
7.604,69.6
7.605,68.8
7.606,65.6
7.607,71.2
7.6080000000000005,66.0
7.609,68.6
7.61,70.0
7.611,65.2
7.612,71.0
7.613,67.0
7.614,67.2
7.615,70.8
7.6160000000000005,65.0
7.617,69.8
7.618,68.4
7.619,66.0
7.62,71.0
7.621,65.8
7.622,69.0
7.623,69.6
7.6240000000000006,65.2
7.625,70.8
7.626,66.6
7.627,67.6
7.628,70.4
7.6290000000000004,65.2
7.63,70.6
7.631,67.8
7.632000000000001,66.4
7.633,71.2
7.634,65.4
7.635,69.6
7.636,69.2
7.6370000000000005,65.2
7.638,71.2
7.639,66.2
7.640000000000001,68.0
7.641,70.2
7.642,65.2
7.643,70.6
7.644,67.2
7.6450000000000005,66.6
7.646,70.8
7.647,65.2
7.648000000000001,69.8
7.649,68.6
7.65,65.8
7.651,71.2
7.652,65.6
7.6530000000000005,68.8
7.654,70.0
7.655,65.2
7.656000000000001,70.8
7.657,67.0
7.658,67.0
7.659,70.8
7.66,65.0
7.6610000000000005,70.2
7.662,68.2
7.663,66.2
7.664000000000001,71.4
7.665,65.4
7.666,69.2
7.667,69.4
7.668,65.4
7.6690000000000005,71.0
7.67,66.4
7.671,67.6
7.672000000000001,70.6
7.673,65.0
7.674,70.6
7.675,67.8
7.676,66.4
7.6770000000000005,71.0
7.678,65.6
7.679,69.4
7.68,69.0
7.681,65.6
7.682,71.0
7.683,66.0
7.684,68.2
7.6850000000000005,70.4
7.686,65.0
7.687,70.8
7.688,67.4
7.689,66.8
7.69,70.8
7.691,65.2
7.692,69.8
7.6930000000000005,68.8
7.694,65.8
7.695,71.4
7.696,65.8
7.697,68.8
7.698,69.8
7.699,65.4
7.7,71.0
7.7010000000000005,66.8
7.702,67.2
7.703,70.4
7.704,65.2
7.705,70.2
7.706,68.2
7.707,66.2
7.708,71.2
7.7090000000000005,65.4
7.71,69.2
7.711,69.6
7.712,65.4
7.713,71.2
7.714,66.4
7.715,67.8
7.716,70.2
7.7170000000000005,65.2
7.718,70.4
7.719,67.6
7.72,66.4
7.721,71.0
7.722,65.4
7.723,69.6
7.724,68.8
7.7250000000000005,65.6
7.726,71.0
7.727,66.2
7.728,68.2
7.729,70.0
7.73,65.2
7.731,70.8
7.732,67.0
7.7330000000000005,67.0
7.734,71.0
7.735,65.2
7.736,69.8
7.737,68.8
7.738,65.8
7.739,71.2
7.74,65.6
7.7410000000000005,68.8
7.742,69.8
7.743,65.2
7.744,70.8
7.745,66.8
7.746,67.4
7.747,70.8
7.748,65.0
7.7490000000000006,70.4
7.75,68.0
7.751,66.0
7.752,71.2
7.753,65.8
7.7540000000000004,69.2
7.755,69.4
7.756,65.4
7.757000000000001,71.2
7.758,66.2
7.759,67.8
7.76,70.6
7.761,65.0
7.7620000000000005,70.6
7.763,67.6
7.764,66.6
7.765000000000001,71.0
7.766,65.2
7.767,69.8
7.768,68.8
7.769,65.6
7.7700000000000005,71.2
7.771,66.2
7.772,68.2
7.773000000000001,70.0
7.774,65.2
7.775,70.8
7.776,67.2
7.777,67.0
7.7780000000000005,70.8
7.779,65.0
7.78,70.0
7.781000000000001,68.4
7.782,65.6
7.783,71.2
7.784,65.8
7.785,68.6
7.7860000000000005,69.6
7.787,65.0
7.788,71.0
7.789000000000001,66.6
7.79,67.4
7.791,70.8
7.792,65.0
7.793,70.4
7.7940000000000005,68.0
7.795,66.0
7.796,71.2
7.797000000000001,65.4
7.798,69.2
7.799,69.2
7.8,65.2
7.801,71.2
7.8020000000000005,66.2
7.803,67.8
7.804,70.4
7.805000000000001,65.2
7.806,70.6
7.807,67.6
7.808,66.6
7.809,71.2
7.8100000000000005,65.2
7.811,69.8
7.812,68.8
7.813,65.6
7.814,71.2
7.815,65.8
7.816,68.2
7.817,70.2
7.8180000000000005,65.0
7.819,70.8
7.82,67.0
7.821,67.0
7.822,71.0
7.823,65.0
7.824,70.2
7.825,68.2
7.8260000000000005,65.8
7.827,71.4
7.828,65.8
7.829,68.8
7.83,69.6
7.831,65.2
7.832,71.0
7.833,66.6
7.8340000000000005,67.6
7.835,70.6
7.836,65.0
7.837,70.4
7.838,67.8
7.839,66.2
7.84,71.4
7.841,65.6
7.8420000000000005,69.4
7.843,69.0
7.844,65.2
7.845,71.0
7.846,66.4
7.847,68.0
7.848,70.4
7.849,65.2
7.8500000000000005,70.6
7.851,67.6
7.852,66.8
7.853,71.2
7.854,65.2
7.855,69.8
7.856,68.8
7.857,65.6
7.8580000000000005,71.2
7.859,65.8
7.86,68.4
7.861,70.0
7.862,65.2
7.863,70.8
7.864,67.4
7.865,67.2
7.8660000000000005,70.8
7.867,65.2
7.868,70.4
7.869,68.4
7.87,66.0
7.871,71.2
7.872,65.6
7.873,68.8
7.8740000000000006,69.4
7.875,65.2
7.876,71.0
7.877,66.6
7.878,67.6
7.8790000000000004,70.6
7.88,65.2
7.881,70.4
7.882000000000001,67.8
7.883,66.4
7.884,71.0
7.885,65.2
7.886,69.4
7.8870000000000005,69.2
7.888,65.4
7.889,71.0
7.890000000000001,66.4
7.891,68.2
7.892,70.4
7.893,65.2
7.894,70.6
7.8950000000000005,67.6
7.896,66.8
7.897,71.0
7.898000000000001,65.4
7.899,69.6
7.9,68.6
7.901,65.8
7.902,71.2
7.9030000000000005,65.8
7.904,68.4
7.905,70.0
7.906000000000001,65.2
7.907,70.8
7.908,67.0
7.909,67.2
7.91,71.0
7.9110000000000005,65.2
7.912,70.0
7.913,68.2
7.914000000000001,65.8
7.915,71.4
7.916,65.6
7.917,68.8
7.918,69.4
7.9190000000000005,65.4
7.92,71.0
7.921,66.4
7.922000000000001,67.4
7.923,70.6
7.924,64.8
7.925,70.2
7.926,67.8
7.9270000000000005,66.4
7.928,71.0
7.929,65.4
7.930000000000001,69.4
7.931,69.2
7.932,65.8
7.933,71.2
7.934,66.0
7.9350000000000005,68.2
7.936,70.2
7.937,65.0
7.938,70.6
7.939,67.4
7.94,66.8
7.941,71.0
7.942,65.0
7.9430000000000005,69.8
7.944,68.6
7.945,65.8
7.946,71.4
7.947,66.0
7.948,68.6
7.949,70.0
7.95,65.0
7.9510000000000005,71.0
7.952,67.0
7.953,67.2
7.954,70.8
7.955,65.0
7.956,70.2
7.957,68.0
7.958,66.2
7.9590000000000005,71.2
7.96,65.8
7.961,69.0
7.962,69.6
7.963,65.2
7.964,71.0
7.965,66.4
7.966,67.8
7.9670000000000005,70.4
7.968,65.0
7.969,70.4
7.97,67.6
7.971,66.4
7.972,71.0
7.973,65.4
7.974,69.4
7.9750000000000005,69.0
7.976,65.6
7.977,71.2
7.978,66.0
7.979,68.0
7.98,70.0
7.981,65.2
7.982,70.8
7.9830000000000005,67.2
7.984,66.8
7.985,70.8
7.986,65.4
7.987,69.8
7.988,68.8
7.989,65.8
7.99,71.2
7.9910000000000005,66.0
7.992,68.4
7.993,69.8
7.994,65.2
7.995,71.2
7.996,66.8
7.997,67.4
7.998,70.6
7.9990000000000006,65.0
8.0,70.0
8.001,68.2
8.002,66.0
8.003,71.2
8.004,65.8
8.005,68.8
8.006,69.4
8.007,65.4
8.008000000000001,71.0
8.009,66.4
8.01,67.8
8.011000000000001,70.4
8.012,64.8
8.013,70.4
8.014,67.8
8.015,66.4
8.016,70.8
8.017,65.4
8.018,69.6
8.019,68.8
8.02,65.8
8.021,71.2
8.022,66.0
8.023,68.2
8.024000000000001,70.0
8.025,65.0
8.026,70.8
8.027000000000001,67.2
8.028,67.0
8.029,71.0
8.03,65.2
8.031,70.0
8.032,68.6
8.033,66.0
8.034,71.2
8.035,65.8
8.036,68.6
8.037,69.6
8.038,65.4
8.039,71.0
8.040000000000001,66.8
8.041,67.4
8.042,70.6
8.043000000000001,65.0
8.044,70.4
8.045,68.2
8.046,66.2
8.047,71.2
8.048,65.6
8.049,69.0
8.05,69.2
8.051,65.4
8.052,71.2
8.053,66.4
8.054,67.8
8.055,70.4
8.056000000000001,65.0
8.057,70.6
8.058,67.6
8.059000000000001,66.6
8.06,71.2
8.061,65.4
8.062,69.6
8.063,69.0
8.064,65.8
8.065,71.0
8.066,66.2
8.067,68.4
8.068,70.2
8.069,65.0
8.07,70.8
8.071,67.4
8.072000000000001,67.0
8.073,70.8
8.074,65.2
8.075,70.0
8.076,68.6
8.077,66.0
8.078,71.4
8.079,65.6
8.08,68.6
8.081,69.8
8.082,65.0
8.083,71.0
8.084,66.8
8.085,67.4
8.086,70.6
8.087,65.2
8.088000000000001,70.4
8.089,68.0
8.09,66.4
8.091,71.0
8.092,65.4
8.093,69.0
8.094,69.4
8.095,65.4
8.096,71.0
8.097,66.2
8.098,68.0
8.099,70.4
8.1,65.2
8.101,70.6
8.102,67.4
8.103,66.6
8.104000000000001,71.2
8.105,65.2
8.106,69.8
8.107,68.8
8.108,65.8
8.109,71.4
8.11,65.8
8.111,68.2
8.112,70.2
8.113,65.4
8.114,71.0
8.115,67.2
8.116,67.0
8.117,70.8
8.118,65.2
8.119,70.0
8.120000000000001,68.4
8.121,66.0
8.122,71.2
8.123,65.6
8.124,68.8
8.125,69.8
8.126,65.2
8.127,71.2
8.128,66.8
8.129,67.6
8.13,70.8
8.131,65.0
8.132,70.2
8.133000000000001,67.8
8.134,66.2
8.135,71.4
8.136000000000001,65.2
8.137,69.2
8.138,69.2
8.139,65.4
8.14,71.0
8.141,66.2
8.142,68.0
8.143,70.4
8.144,65.0
8.145,70.8
8.146,67.4
8.147,66.8
8.148,71.0
8.149000000000001,65.4
8.15,69.8
8.151,68.6
8.152000000000001,65.8
8.153,71.2
8.154,66.0
8.155,68.2
8.156,70.0
8.157,65.2
8.158,71.0
8.159,67.2
8.16,67.2
8.161,70.6
8.162,65.2
8.163,70.2
8.164,68.2
8.165000000000001,66.0
8.166,71.2
8.167,65.8
8.168000000000001,68.8
8.169,69.4
8.17,65.4
8.171,71.0
8.172,66.6
8.173,67.6
8.174,70.2
8.175,64.8
8.176,70.4
8.177,68.0
8.178,66.2
8.179,71.0
8.18,65.6
8.181000000000001,69.4
8.182,69.2
8.183,65.4
8.184000000000001,71.4
8.185,66.2
8.186,68.0
8.187,70.4
8.188,65.0
8.189,70.8
8.19,67.4
8.191,66.8
8.192,71.0
8.193,65.4
8.194,69.8
8.195,68.8
8.196,65.6
8.197000000000001,71.4
8.198,65.8
8.199,68.6
8.2,70.0
8.201,65.2
8.202,71.0
8.203,67.0
8.204,67.2
8.205,70.8
8.206,65.2
8.207,70.4
8.208,68.2
8.209,66.0
8.21,71.0
8.211,65.6
8.212,69.0
8.213000000000001,69.4
8.214,65.2
8.215,71.2
8.216,66.6
8.217,67.6
8.218,70.4
8.219,65.0
8.22,70.2
8.221,67.6
8.222,66.4
8.223,71.0
8.224,65.4
8.225,69.4
8.226,69.0
8.227,65.6
8.228,71.2
8.229000000000001,66.2
8.23,68.0
8.231,70.2
8.232,65.2
8.233,70.6
8.234,67.2
8.235,66.8
8.236,71.0
8.237,65.2
8.238,70.0
8.239,68.6
8.24,65.8
8.241,71.2
8.242,66.0
8.243,68.6
8.244,70.0
8.245000000000001,65.0
8.246,71.0
8.247,66.8
8.248,67.4
8.249,70.8
8.25,64.8
8.251,70.4
8.252,68.2
8.253,66.0
8.254,71.0
8.255,65.8
8.256,69.0
8.257,69.2
8.258000000000001,65.4
8.259,71.2
8.26,66.6
8.261000000000001,67.8
8.262,70.6
8.263,64.8
8.264,70.4
8.265,67.6
8.266,66.6
8.267,71.0
8.268,65.2
8.269,69.6
8.27,69.0
8.271,65.6
8.272,71.4
8.273,66.0
8.274000000000001,68.2
8.275,70.4
8.276,65.0
8.277000000000001,70.6
8.278,67.2
8.279,66.8
8.28,71.0
8.281,65.0
8.282,69.8
8.283,68.6
8.284,65.8
8.285,71.2
8.286,65.8
8.287,68.8
8.288,69.8
8.289,65.0
8.290000000000001,71.0
8.291,66.8
8.292,67.2
8.293000000000001,70.6
8.294,65.0
8.295,70.2
8.296,68.2
8.297,66.0
8.298,71.4
8.299,65.4
8.3,69.0
8.301,69.4
8.302,65.4
8.303,71.2
8.304,66.4
8.305,67.6
8.306000000000001,70.6
8.307,65.0
8.308,70.6
8.309000000000001,67.4
8.31,66.4
8.311,71.0
8.312,65.2
8.313,69.6
8.314,69.0
8.315,65.6
8.316,71.4
8.317,66.2
8.318,68.2
8.319,70.2
8.32,65.0
8.321,70.6
8.322000000000001,67.2
8.323,67.0
8.324,71.0
8.325,65.0
8.326,70.0
8.327,68.4
8.328,66.0
8.329,71.2
8.33,65.6
8.331,68.8
8.332,69.6
8.333,65.0
8.334,71.0
8.335,66.8
8.336,67.4
8.337,70.8
8.338000000000001,64.8
8.339,70.2
8.34,68.0
8.341,66.4
8.342,71.4
8.343,65.4
8.344,69.2
8.345,69.4
8.346,65.4
8.347,71.2
8.348,66.4
8.349,67.8
8.35,70.4
8.351,65.0
8.352,70.4
8.353,67.4
8.354000000000001,66.6
8.355,71.2
8.356,65.4
8.357,69.6
8.358,68.8
8.359,65.6
8.36,71.0
8.361,66.2
8.362,68.2
8.363,70.4
8.364,65.0
8.365,70.8
8.366,67.0
8.367,66.8
8.368,71.0
8.369,65.2
8.370000000000001,69.8
8.371,68.4
8.372,65.8
8.373,71.2
8.374,65.8
8.375,68.8
8.376,69.6
8.377,65.2
8.378,71.2
8.379,66.6
8.38,67.6
8.381,70.6
8.382,65.2
8.383000000000001,70.2
8.384,68.0
8.385,66.2
8.386000000000001,71.0
8.387,65.6
8.388,69.2
8.389,69.2
8.39,65.8
8.391,71.2
8.392,66.4
8.393,68.2
8.394,70.2
8.395,65.0
8.396,70.6
8.397,67.6
8.398,66.8
8.399000000000001,71.0
8.4,65.2
8.401,69.8
8.402000000000001,68.8
8.403,65.8
8.404,71.2
8.405,66.2
8.406,68.2
8.407,69.8
8.408,65.0
8.409,70.6
8.41,67.2
8.411,67.2
8.412,70.6
8.413,65.2
8.414,70.2
8.415000000000001,68.2
8.416,66.0
8.417,71.0
8.418000000000001,65.6
8.419,68.8
8.42,69.6
8.421,65.2
8.422,71.0
8.423,66.8
8.424,67.6
8.425,70.6
8.426,65.2
8.427,70.4
8.428,68.0
8.429,66.4
8.43,71.2
8.431000000000001,65.6
8.432,69.2
8.433,69.2
8.434000000000001,65.4
8.435,71.2
8.436,66.4
8.437,68.0
8.438,70.2
8.439,65.0
8.44,70.8
8.441,67.4
8.442,66.6
8.443,71.0
8.444,65.4
8.445,69.6
8.446,68.8
8.447000000000001,65.6
8.448,71.2
8.449,66.0
8.45,68.4
8.451,69.6
8.452,65.0
8.453,71.0
8.454,67.2
8.455,67.2
8.456,70.8
8.457,65.2
8.458,70.2
8.459,68.2
8.46,66.0
8.461,71.2
8.462,65.8
8.463000000000001,69.0
8.464,69.6
8.465,65.2
8.466,71.0
8.467,66.6
8.468,67.6
8.469,70.4
8.47,65.2
8.471,70.4
8.472,67.8
8.473,66.4
8.474,71.2
8.475,65.2
8.476,69.4
8.477,69.2
8.478,65.4
8.479000000000001,71.0
8.48,66.2
8.481,68.2
8.482,70.2
8.483,65.2
8.484,70.8
8.485,67.4
8.486,66.8
8.487,71.0
8.488,65.4
8.489,70.0
8.49,68.4
8.491,66.0
8.492,71.2
8.493,65.8
8.494,68.4
8.495000000000001,70.0
8.496,65.2
8.497,70.8
8.498,67.0
8.499,67.2
8.5,70.8
8.501,65.0
8.502,70.2
8.503,68.0
8.504,66.2
8.505,71.2
8.506,65.6
8.507,68.8
8.508000000000001,69.4
8.509,65.4
8.51,71.2
8.511000000000001,66.4
8.512,67.6
8.513,70.4
8.514,65.0
8.515,70.6
8.516,67.6
8.517,66.4
8.518,71.0
8.519,65.2
8.52,69.4
8.521,69.0
8.522,65.6
8.523,71.2
8.524000000000001,66.2
8.525,68.2
8.526,70.4
8.527000000000001,65.2
8.528,70.8
8.529,67.4
8.53,66.8
8.531,70.8
8.532,65.2
8.533,69.8
8.534,68.6
8.535,66.0
8.536,71.2
8.537,65.6
8.538,68.8
8.539,69.8
8.540000000000001,65.4
8.541,71.0
8.542,66.8
8.543000000000001,67.2
8.544,70.8
8.545,65.2
8.546,70.0
8.547,68.0
8.548,66.2
8.549,71.2
8.55,65.6
8.551,69.0
8.552,69.2
8.553,65.4
8.554,71.2
8.555,66.4
8.556000000000001,67.8
8.557,70.4
8.558,64.8
8.559000000000001,70.6
8.56,67.8
8.561,66.6
8.562,71.2
8.563,65.4
8.564,69.4
8.565,68.8
8.566,65.8
8.567,71.2
8.568,66.0
8.569,68.4
8.57,70.2
8.571,65.2
8.572000000000001,70.8
8.573,67.2
8.574,67.2
8.575000000000001,70.8
8.576,65.2
8.577,69.8
8.578,68.6
8.579,66.0
8.58,71.6
8.581,65.8
8.582,68.6
8.583,70.0
8.584,65.2
8.585,71.0
8.586,66.8
8.587,67.4
8.588000000000001,70.6
8.589,65.2
8.59,70.4
8.591,68.0
8.592,66.0
8.593,71.2
8.594,65.4
8.595,69.0
8.596,69.4
8.597,65.4
8.598,71.2
8.599,66.4
8.6,67.6
8.601,70.6
8.602,65.0
8.603,70.8
8.604000000000001,67.6
8.605,66.6
8.606,71.0
8.607,65.2
8.608,69.6
8.609,69.0
8.61,65.6
8.611,71.2
8.612,66.0
8.613,68.2
8.614,70.2
8.615,65.2
8.616,70.8
8.617,67.2
8.618,66.8
8.619,71.0
8.620000000000001,65.2
8.621,70.0
8.622,68.6
8.623,65.8
8.624,71.4
8.625,65.8
8.626,68.8
8.627,69.6
8.628,65.4
8.629,71.0
8.63,66.6
8.631,67.4
8.632,70.6
8.633000000000001,65.0
8.634,70.4
8.635,67.8
8.636000000000001,66.2
8.637,71.0
8.638,65.4
8.639,69.2
8.64,69.2
8.641,65.6
8.642,71.2
8.643,66.4
8.644,67.8
8.645,70.2
8.646,65.0
8.647,70.6
8.648,67.4
8.649000000000001,66.8
8.65,71.0
8.651,65.4
8.652000000000001,69.6
8.653,68.8
8.654,65.8
8.655,71.2
8.656,66.0
8.657,68.4
8.658,70.0
8.659,65.0
8.66,70.8
8.661,66.8
8.662,67.2
8.663,70.8
8.664,65.2
8.665000000000001,70.0
8.666,68.4
8.667,65.8
8.668000000000001,71.2
8.669,65.6
8.67,68.8
8.671,69.6
8.672,65.4
8.673,71.0
8.674,66.6
8.675,67.6
8.676,70.4
8.677,65.0
8.678,70.4
8.679,68.0
8.68,66.2
8.681000000000001,71.2
8.682,65.6
8.683,69.2
8.684000000000001,69.2
8.685,65.6
8.686,71.0
8.687,66.4
8.688,68.0
8.689,70.4
8.69,65.2
8.691,70.4
8.692,67.4
8.693,66.6
8.694,71.0
8.695,65.2
8.696,69.8
8.697000000000001,68.8
8.698,65.8
8.699,71.2
8.700000000000001,66.0
8.701,68.4
8.702,70.0
8.703,65.2
8.704,70.8
8.705,67.0
8.706,67.0
8.707,71.0
8.708,65.2
8.709,69.8
8.71,68.4
8.711,65.8
8.712,71.4
8.713000000000001,65.8
8.714,68.8
8.715,69.6
8.716,65.4
8.717,71.0
8.718,66.6
8.719,67.6
8.72,70.6
8.721,65.0
8.722,70.4
8.723,67.8
8.724,66.4
8.725,71.0
8.726,65.4
8.727,69.2
8.728,69.0
8.729000000000001,65.6
8.73,71.2
8.731,66.2
8.732,68.0
8.733,70.4
8.734,65.0
8.735,70.6
8.736,67.2
8.737,67.0
8.738,71.0
8.739,65.4
8.74,69.8
8.741,68.8
8.742,65.8
8.743,71.2
8.744,65.8
8.745000000000001,68.2
8.746,70.0
8.747,65.2
8.748,70.8
8.749,67.0
8.75,67.2
8.751,70.8
8.752,65.2
8.753,70.2
8.754,68.2
8.755,66.0
8.756,71.0
8.757,65.8
8.758000000000001,68.8
8.759,69.4
8.76,65.2
8.761000000000001,71.0
8.762,66.6
8.763,67.8
8.764,70.6
8.765,65.0
8.766,70.4
8.767,67.8
8.768,66.4
8.769,71.0
8.77,65.6
8.771,69.2
8.772,69.2
8.773,65.4
8.774000000000001,71.2
8.775,66.0
8.776,67.8
8.777000000000001,70.0
8.778,65.2
8.779,70.6
8.78,67.6
8.781,66.8
8.782,71.2
8.783,65.2
8.784,69.8
8.785,68.8
8.786,65.8
8.787,71.4
8.788,65.8
8.789,68.4
8.790000000000001,69.8
8.791,65.2
8.792,70.8
8.793000000000001,67.0
8.794,67.0
8.795,70.8
8.796,65.2
8.797,70.4
8.798,68.2
8.799,66.0
8.8,71.0
8.801,65.8
8.802,69.0
8.803,69.4
8.804,65.2
8.805,71.0
8.806000000000001,66.4
8.807,67.6
8.808,70.4
8.809000000000001,65.0
8.81,70.4
8.811,67.8
8.812,66.6
8.813,70.8
8.814,65.4
8.815,69.4
8.816,68.8
8.817,65.8
8.818,71.2
8.819,66.4
8.82,68.2
8.821,70.4
8.822000000000001,65.2
8.823,70.8
8.824,67.4
8.825000000000001,66.8
8.826,71.0
8.827,65.2
8.828,69.8
8.829,68.6
8.83,65.8
8.831,71.4
8.832,66.0
8.833,68.6
8.834,69.6
8.835,65.0
8.836,71.0
8.837,67.0
8.838000000000001,67.4
8.839,70.4
8.84,65.0
8.841,70.2
8.842,68.0
8.843,66.2
8.844,70.8
8.845,65.8
8.846,69.0
8.847,69.4
8.848,65.4
8.849,71.2
8.85,66.4
8.851,67.8
8.852,70.4
8.853,65.2
8.854000000000001,70.6
8.855,67.4
8.856,66.6
8.857,71.0
8.858,65.2
8.859,69.4
8.86,68.8
8.861,65.6
8.862,71.2
8.863,66.2
8.864,68.2
8.865,70.0
8.866,65.0
8.867,70.8
8.868,67.4
8.869,67.0
8.870000000000001,71.0
8.871,65.2
8.872,70.0
8.873,68.4
8.874,65.8
8.875,71.2
8.876,65.8
8.877,68.8
8.878,69.8
8.879,65.2
8.88,71.2
8.881,66.8
8.882,67.2
8.883000000000001,70.8
8.884,65.2
8.885,70.4
8.886000000000001,68.0
8.887,66.2
8.888,71.4
8.889,65.6
8.89,69.2
8.891,69.4
8.892,65.4
8.893,71.2
8.894,66.4
8.895,67.6
8.896,70.4
8.897,65.0
8.898,70.8
8.899000000000001,67.4
8.9,66.6
8.901,71.2
8.902000000000001,65.4
8.903,69.4
8.904,68.8
8.905,65.8
8.906,71.2
8.907,65.8
8.908,68.2
8.909,70.0
8.91,65.0
8.911,70.8
8.912,67.0
8.913,67.2
8.914,70.8
8.915000000000001,65.2
8.916,70.0
8.917,68.6
8.918000000000001,66.0
8.919,71.2
8.92,65.8
8.921,68.6
8.922,69.8
8.923,65.4
8.924,70.8
8.925,66.6
8.926,67.4
8.927,70.6
8.928,65.0
8.929,70.4
8.93,68.2
8.931000000000001,66.2
8.932,71.0
8.933,65.4
8.934000000000001,69.0
8.935,69.2
8.936,65.4
8.937,71.0
8.938,66.4
8.939,68.0
8.94,70.2
8.941,65.0
8.942,70.6
8.943,67.4
8.944,66.8
8.945,71.0
8.946,65.4
8.947000000000001,69.6
8.948,68.8
8.949,65.8
8.950000000000001,71.4
8.951,66.0
8.952,68.2
8.953,70.2
8.954,64.8
8.955,70.8
8.956,67.0
8.957,67.0
8.958,71.0
8.959,65.2
8.96,70.0
8.961,68.4
8.962,65.8
8.963000000000001,71.2
8.964,65.6
8.965,68.8
8.966,69.8
8.967,65.2
8.968,71.2
8.969,66.8
8.97,67.4
8.971,70.8
8.972,65.0
8.973,70.2
8.974,68.0
8.975,66.2
8.976,71.2
8.977,65.0
8.978,69.2
8.979000000000001,69.4
8.98,65.4
8.981,71.2
8.982,66.4
8.983,67.8
8.984,70.4
8.985,65.0
8.986,70.8
8.987,67.4
8.988,66.8
8.989,71.0
8.99,65.2
8.991,69.8
8.992,68.8
8.993,65.8
8.994,71.4
8.995000000000001,65.8
8.996,68.6
8.997,70.0
8.998,65.2
8.999,70.8
9.0,66.8
9.001,67.2
9.002,70.6
9.003,65.0
9.004,70.4
9.005,68.4
9.006,65.8
9.007,71.2
9.008000000000001,65.8
9.009,69.0
9.01,69.6
9.011000000000001,65.2
9.012,71.0
9.013,66.6
9.014,67.6
9.015,70.8
9.016,65.2
9.017,70.4
9.018,67.8
9.019,66.4
9.02,71.2
9.021,65.6
9.022,69.4
9.023,69.2
9.024000000000001,65.6
9.025,71.2
9.026,66.2
9.027000000000001,67.8
9.028,70.4
9.029,65.0
9.03,70.8
9.031,67.4
9.032,66.8
9.033,71.0
9.034,65.2
9.035,69.8
9.036,68.8
9.037,65.8
9.038,71.4
9.039,65.8
9.040000000000001,68.4
9.041,70.0
9.042,65.0
9.043000000000001,70.8
9.044,67.0
9.045,67.2
9.046,70.6
9.047,65.0
9.048,70.4
9.049,68.2
9.05,66.0
9.051,71.4
9.052,65.8
9.053,69.0
9.054,69.6
9.055,65.2
9.056000000000001,71.0
9.057,66.6
9.058,67.8
9.059000000000001,70.4
9.06,65.0
9.061,70.4
9.062,67.8
9.063,66.4
9.064,71.2
9.065,65.2
9.066,69.2
9.067,69.2
9.068,65.6
9.069,71.2
9.07,66.2
9.071,68.0
9.072000000000001,70.4
9.073,65.0
9.074,70.8
9.075000000000001,67.2
9.076,66.8
9.077,71.2
9.078,65.2
9.079,69.8
9.08,68.8
9.081,65.8
9.082,71.4
9.083,66.0
9.084,68.4
9.085,70.2
9.086,65.2
9.087,70.8
9.088000000000001,67.0
9.089,67.2
9.09,71.0
9.091,65.0
9.092,70.4
9.093,68.2
9.094,66.2
9.095,71.2
9.096,65.4
9.097,69.2
9.098,69.6
9.099,65.4
9.1,71.2
9.101,66.6
9.102,67.4
9.103,70.8
9.104000000000001,65.0
9.105,70.2
9.106,67.6
9.107,66.4
9.108,71.2
9.109,65.6
9.11,69.4
9.111,69.0
9.112,65.6
9.113,71.2
9.114,66.2
9.115,68.2
9.116,70.2
9.117,65.0
9.118,70.8
9.119,67.2
9.120000000000001,66.8
9.121,71.0
9.122,65.2
9.123,70.0
9.124,68.6
9.125,65.8
9.126,71.2
9.127,66.0
9.128,68.4
9.129,70.0
9.13,65.0
9.131,70.8
9.132,66.8
9.133000000000001,67.2
9.134,70.8
9.135,65.2
9.136000000000001,70.2
9.137,68.2
9.138,66.0
9.139,71.4
9.14,65.4
9.141,69.0
9.142,69.4
9.143,65.2
9.144,71.0
9.145,66.6
9.146,67.8
9.147,70.6
9.148,65.2
9.149000000000001,70.6
9.15,67.6
9.151,66.6
9.152000000000001,71.2
9.153,65.4
9.154,69.6
9.155,68.8
9.156,65.6
9.157,71.2
9.158,66.0
9.159,68.2
9.16,70.4
9.161,65.0
9.162,70.6
9.163,67.2
9.164,67.0
9.165000000000001,70.8
9.166,65.2
9.167,70.0
9.168000000000001,68.4
9.169,65.8
9.17,71.4
9.171,65.6
9.172,68.6
9.173,70.0
9.174,65.4
9.175,70.8
9.176,66.6
9.177,67.4
9.178,70.6
9.179,65.0
9.18,70.4
9.181000000000001,68.0
9.182,66.2
9.183,71.4
9.184000000000001,65.6
9.185,69.2
9.186,69.2
9.187,65.4
9.188,71.0
9.189,66.4
9.19,67.8
9.191,70.6
9.192,65.0
9.193,70.8
9.194,67.6
9.195,66.6
9.196,71.2
9.197000000000001,65.4
9.198,69.8
9.199,68.8
9.200000000000001,65.4
9.201,71.0
9.202,66.2
9.203,68.4
9.204,70.0
9.205,65.0
9.206,70.8
9.207,67.2
9.208,66.8
9.209,70.8
9.21,65.0
9.211,69.8
9.212,68.4
9.213000000000001,65.8
9.214,71.2
9.215,65.8
9.216000000000001,68.8
9.217,70.0
9.218,65.2
9.219,71.4
9.22,66.8
9.221,67.4
9.222,70.8
9.223,65.0
9.224,70.4
9.225,67.8
9.226,66.2
9.227,71.4
9.228,65.6
9.229000000000001,69.2
9.23,69.2
9.231,65.2
9.232,71.2
9.233,66.4
9.234,67.8
9.235,70.4
9.236,65.2
9.237,70.6
9.238,67.6
9.239,66.6
9.24,70.8
9.241,65.4
9.242,69.6
9.243,69.0
9.244,65.4
9.245000000000001,71.4
9.246,66.0
9.247,68.2
9.248,70.4
9.249,65.2
9.25,70.8
9.251,67.2
9.252,67.0
9.253,70.8
9.254,65.2
9.255,70.0
9.256,68.4
9.257,65.8
9.258000000000001,71.2
9.259,65.8
9.26,68.6
9.261000000000001,69.8
9.262,65.2
9.263,70.8
9.264,66.6
9.265,67.4
9.266,70.6
9.267,65.0
9.268,70.4
9.269,68.0
9.27,66.2
9.271,71.2
9.272,65.4
9.273,69.2
9.274000000000001,69.2
9.275,65.6
9.276,71.4
9.277000000000001,66.2
9.278,68.0
9.279,70.4
9.28,65.2
9.281,70.8
9.282,67.4
9.283,66.6
9.284,71.2
9.285,65.2
9.286,69.6
9.287,68.8
9.288,65.8
9.289,71.2
9.290000000000001,66.0
9.291,68.4
9.292,70.2
9.293000000000001,65.2
9.294,71.0
9.295,67.0
9.296,67.0
9.297,70.8
9.298,65.0
9.299,70.0
9.3,68.2
9.301,66.0
9.302,71.4
9.303,65.6
9.304,68.8
9.305,69.8
9.306000000000001,65.2
9.307,71.0
9.308,66.4
9.309000000000001,67.4
9.31,70.4
9.311,65.0
9.312,70.6
9.313,68.0
9.314,66.2
9.315,71.2
9.316,65.4
9.317,69.2
9.318,69.2
9.319,65.4
9.32,71.2
9.321,66.2
9.322000000000001,68.0
9.323,70.4
9.324,65.2
9.325000000000001,70.8
9.326,67.4
9.327,66.6
9.328,71.0
9.329,65.0
9.33,69.8
9.331,68.6
9.332,65.8
9.333,71.4
9.334,65.8
9.335,68.6
9.336,70.2
9.337,65.2
9.338000000000001,71.0
9.339,67.0
9.34,67.2
9.341000000000001,71.0
9.342,65.2
9.343,70.0
9.344,68.2
9.345,66.2
9.346,71.2
9.347,65.4
9.348,69.0
9.349,69.4
9.35,65.2
9.351,71.0
9.352,66.6
9.353,67.6
9.354000000000001,70.8
9.355,65.0
9.356,70.4
9.357,68.0
9.358,66.6
9.359,71.0
9.36,65.2
9.361,69.2
9.362,69.2
9.363,65.4
9.364,71.2
9.365,66.2
9.366,67.8
9.367,70.4
9.368,65.2
9.369,70.6
9.370000000000001,67.4
9.371,66.6
9.372,71.2
9.373,65.0
9.374,69.8
9.375,68.6
9.376,65.6
9.377,71.2
9.378,66.0
9.379,68.4
9.38,69.8
9.381,65.2
9.382,71.2
9.383000000000001,67.0
9.384,67.2
9.385,70.8
9.386000000000001,65.0
9.387,70.2
9.388,68.0
9.389,66.0
9.39,71.6
9.391,65.8
9.392,68.8
9.393,69.6
9.394,65.2
9.395,71.2
9.396,66.4
9.397,67.4
9.398,70.4
9.399000000000001,65.0
9.4,70.6
9.401,67.8
9.402000000000001,66.2
9.403,71.2
9.404,65.6
9.405,69.4
9.406,69.0
9.407,65.6
9.408,71.0
9.409,66.0
9.41,68.0
9.411,70.4
9.412,65.0
9.413,70.8
9.414,67.2
9.415000000000001,66.8
9.416,71.0
9.417,65.2
9.418000000000001,69.8
9.419,68.4
9.42,65.8
9.421,71.2
9.422,65.8
9.423,68.6
9.424,69.8
9.425,65.4
9.426,71.0
9.427,66.6
9.428,67.2
9.429,70.8
9.43,65.0
9.431000000000001,70.4
9.432,68.2
9.433,66.0
9.434000000000001,71.0
9.435,65.4
9.436,68.8
9.437,69.4
9.438,65.2
9.439,71.0
9.44,66.4
9.441,67.8
9.442,70.4
9.443,65.0
9.444,70.6
9.445,67.8
9.446,66.6
9.447000000000001,71.0
9.448,65.4
9.449,69.2
9.450000000000001,69.0
9.451,65.6
9.452,71.4
9.453,66.2
9.454,68.0
9.455,70.0
9.456,65.0
9.457,71.0
9.458,67.4
9.459,66.8
9.46,71.0
9.461,65.0
9.462,69.8
9.463000000000001,68.6
9.464,66.0
9.465,71.0
9.466000000000001,65.8
9.467,68.8
9.468,69.8
9.469,65.2
9.47,71.0
9.471,66.8
9.472,67.4
9.473,70.8
9.474,64.8
9.475,70.2
9.476,68.0
9.477,66.2
9.478,71.2
9.479000000000001,65.6
9.48,69.2
9.481,69.4
9.482,65.4
9.483,71.0
9.484,66.4
9.485,67.8
9.486,70.6
9.487,64.8
9.488,70.6
9.489,67.6
9.49,66.4
9.491,71.0
9.492,65.4
9.493,69.4
9.494,69.0
9.495000000000001,65.8
9.496,71.4
9.497,65.8
9.498,68.2
9.499,70.2
9.5,65.2
9.501,70.8
9.502,67.2
9.503,67.0
9.504,71.0
9.505,65.2
9.506,69.8
9.507,68.6
9.508000000000001,65.8
9.509,71.2
9.51,65.8
9.511000000000001,68.4
9.512,69.8
9.513,65.2
9.514,71.0
9.515,66.6
9.516,67.6
9.517,70.8
9.518,65.0
9.519,70.4
9.52,68.0
9.521,66.2
9.522,71.2
9.523,65.6
9.524000000000001,69.2
9.525,69.2
9.526,65.2
9.527000000000001,71.0
9.528,66.4
9.529,67.8
9.53,70.6
9.531,65.2
9.532,70.4
9.533,67.4
9.534,66.4
9.535,71.0
9.536,65.2
9.537,69.6
9.538,68.8
9.539,65.6
9.540000000000001,71.2
9.541,66.0
9.542,68.4
9.543000000000001,70.0
9.544,65.2
9.545,71.0
9.546,67.2
9.547,67.0
9.548,70.8
9.549,65.2
9.55,70.0
9.551,68.2
9.552,66.0
9.553,71.2
9.554,65.6
9.555,68.6
9.556000000000001,69.8
9.557,65.2
9.558,70.8
9.559000000000001,66.6
9.56,67.4
9.561,70.6
9.562,65.0
9.563,70.4
9.564,68.2
9.565,66.4
9.566,71.4
9.567,65.4
9.568,69.2
9.569,69.2
9.57,65.4
9.571,71.0
9.572000000000001,66.4
9.573,68.0
9.574,70.4
9.575000000000001,65.0
9.576,70.8
9.577,67.6
9.578,66.6
9.579,71.0
9.58,65.2
9.581,69.8
9.582,68.6
9.583,65.8
9.584,71.0
9.585,66.0
9.586,68.6
9.587,70.4
9.588000000000001,65.2
9.589,71.0
9.59,67.0
9.591000000000001,67.0
9.592,70.8
9.593,65.2
9.594,70.0
9.595,68.4
9.596,65.8
9.597,71.0
9.598,65.8
9.599,68.8
9.6,69.6
9.601,65.2
9.602,71.0
9.603,66.6
9.604000000000001,67.4
9.605,70.4
9.606,64.8
9.607,70.2
9.608,67.8
9.609,66.2
9.61,71.2
9.611,65.6
9.612,69.2
9.613,69.0
9.614,65.6
9.615,71.2
9.616,66.4
9.617,67.8
9.618,70.4
9.619,64.8
9.620000000000001,70.4
9.621,67.4
9.622,66.6
9.623,71.0
9.624,65.2
9.625,69.6
9.626,68.8
9.627,65.8
9.628,71.4
9.629,65.8
9.63,68.4
9.631,69.8
9.632,65.2
9.633000000000001,71.0
9.634,67.0
9.635,67.2
9.636000000000001,70.8
9.637,65.2
9.638,70.0
9.639,68.2
9.64,65.8
9.641,71.4
9.642,65.8
9.643,69.0
9.644,69.6
9.645,65.4
9.646,71.0
9.647,66.4
9.648,67.6
9.649000000000001,70.4
9.65,65.2
9.651,70.6
9.652000000000001,67.8
9.653,66.4
9.654,71.0
9.655,65.4
9.656,69.2
9.657,69.0
9.658,65.6
9.659,71.2
9.66,66.0
9.661,68.0
9.662,70.4
9.663,65.0
9.664,70.8
9.665000000000001,67.4
9.666,66.8
9.667,70.8
9.668000000000001,65.2
9.669,69.8
9.67,68.8
9.671,65.8
9.672,71.4
9.673,65.8
9.674,68.4
9.675,70.0
9.676,65.2
9.677,71.0
9.678,67.2
9.679,67.2
9.68,71.0
9.681000000000001,65.0
9.682,70.0
9.683,68.2
9.684000000000001,66.0
9.685,71.2
9.686,65.8
9.687,69.0
9.688,69.6
9.689,65.2
9.69,71.2
9.691,66.6
9.692,67.8
9.693,70.8
9.694,65.0
9.695,70.2
9.696,67.8
9.697000000000001,66.4
9.698,71.2
9.699,65.2
9.700000000000001,69.4
9.701,69.0
9.702,65.6
9.703,71.2
9.704,66.0
9.705,68.0
9.706,70.2
9.707,65.0
9.708,70.8
9.709,67.2
9.71,66.8
9.711,71.0
9.712,65.2
9.713000000000001,70.0
9.714,68.6
9.715,65.8
9.716000000000001,71.2
9.717,65.8
9.718,68.6
9.719,69.8
9.72,65.4
9.721,71.0
9.722,67.0
9.723,67.2
9.724,70.8
9.725,65.0
9.726,70.2
9.727,68.2
9.728,66.2
9.729000000000001,71.4
9.73,65.6
9.731,69.0
9.732,69.4
9.733,65.4
9.734,71.0
9.735,66.4
9.736,67.6
9.737,70.4
9.738,65.0
9.739,70.4
9.74,67.6
9.741,66.4
9.742,71.4
9.743,65.4
9.744,69.4
9.745000000000001,69.0
9.746,65.6
9.747,71.2
9.748,66.2
9.749,68.2
9.75,70.2
9.751,65.2
9.752,70.8
9.753,67.2
9.754,67.0
9.755,71.0
9.756,65.0
9.757,70.0
9.758000000000001,68.6
9.759,65.8
9.76,71.4
9.761000000000001,65.8
9.762,68.6
9.763,69.8
9.764,65.4
9.765,70.8
9.766,67.0
9.767,67.2
9.768,70.8
9.769,65.0
9.77,70.4
9.771,68.2
9.772,66.0
9.773,71.4
9.774000000000001,65.8
9.775,68.8
9.776,69.4
9.777000000000001,65.4
9.778,71.0
9.779,66.6
9.78,67.6
9.781,70.4
9.782,65.0
9.783,70.8
9.784,67.6
9.785,66.6
9.786,71.2
9.787,65.4
9.788,69.4
9.789,69.0
9.790000000000001,65.6
9.791,71.2
9.792,66.2
9.793000000000001,68.2
9.794,70.2
9.795,64.8
9.796,71.0
9.797,67.2
9.798,66.8
9.799,70.8
9.8,65.2
9.801,70.0
9.802,68.6
9.803,65.8
9.804,71.2
9.805,65.8
9.806000000000001,68.8
9.807,70.0
9.808,65.2
9.809000000000001,71.0
9.81,66.8
9.811,67.4
9.812,70.8
9.813,65.2
9.814,70.4
9.815,67.8
9.816,66.2
9.817,71.2
9.818,65.4
9.819,69.0
9.82,69.2
9.821,65.4
9.822000000000001,71.2
9.823,66.4
9.824,67.6
9.825000000000001,70.6
9.826,65.2
9.827,70.8
9.828,67.6
9.829,66.6
9.83,71.0
9.831,65.4
9.832,69.6
9.833,68.8
9.834,65.6
9.835,71.2
9.836,66.0
9.837,68.4
9.838000000000001,70.2
9.839,65.2
9.84,70.8
9.841000000000001,67.2
9.842,67.0
9.843,71.2
9.844,65.0
9.845,69.8
9.846,68.4
9.847,65.8
9.848,71.2
9.849,65.8
9.85,68.8
9.851,69.4
9.852,65.2
9.853,71.0
9.854000000000001,66.8
9.855,67.4
9.856,70.8
9.857,65.0
9.858,70.4
9.859,68.2
9.86,66.2
9.861,71.0
9.862,65.6
9.863,69.0
9.864,69.2
9.865,65.2
9.866,71.0
9.867,66.4
9.868,67.8
9.869,70.4
9.870000000000001,65.0
9.871,70.4
9.872,67.6
9.873,66.6
9.874,71.0
9.875,65.4
9.876,69.8
9.877,68.8
9.878,65.8
9.879,71.2
9.88,66.0
9.881,68.2
9.882,70.0
9.883000000000001,65.0
9.884,70.8
9.885,67.2
9.886000000000001,66.8
9.887,71.0
9.888,65.2
9.889,70.0
9.89,68.4
9.891,66.0
9.892,71.2
9.893,65.6
9.894,68.8
9.895,69.8
9.896,65.2
9.897,71.2
9.898,66.6
9.899000000000001,67.6
9.9,70.8
9.901,65.2
9.902000000000001,70.2
9.903,67.8
9.904,66.2
9.905,71.0
9.906,65.4
9.907,69.2
9.908,69.2
9.909,65.2
9.91,71.0
9.911,66.2
9.912,67.8
9.913,70.4
9.914,64.8
9.915000000000001,70.6
9.916,67.4
9.917,66.4
9.918000000000001,71.0
9.919,65.2
9.92,69.6
9.921,68.8
9.922,65.6
9.923,71.0
9.924,66.0
9.925,68.4
9.926,70.0
9.927,65.2
9.928,70.8
9.929,67.0
9.93,67.2
9.931000000000001,71.0
9.932,65.2
9.933,70.0
9.934000000000001,68.4
9.935,66.0
9.936,71.4
9.937,65.6
9.938,68.8
9.939,69.6
9.94,65.4
9.941,71.2
9.942,66.8
9.943,67.6
9.944,70.6
9.945,65.0
9.946,70.4
9.947000000000001,68.0
9.948,66.4
9.949,71.0
9.950000000000001,65.4
9.951,69.2
9.952,69.2
9.953,65.4
9.954,71.0
9.955,66.4
9.956,67.8
9.957,70.4
9.958,65.0
9.959,70.6
9.96,67.6
9.961,66.6
9.962,71.0
9.963000000000001,65.2
9.964,69.6
9.965,68.6
9.966000000000001,66.0
9.967,71.2
9.968,65.8
9.969,68.4
9.97,70.0
9.971,65.2
9.972,70.8
9.973,66.8
9.974,67.2
9.975,70.8
9.976,65.2
9.977,70.4
9.978,68.0
9.979000000000001,66.0
9.98,71.2
9.981,65.8
9.982000000000001,68.8
9.983,69.6
9.984,65.2
9.985,71.0
9.986,66.4
9.987,67.6
9.988,70.4
9.989,65.0
9.99,70.4
9.991,67.8
9.992,66.2
9.993,70.8
9.994,65.4
9.995000000000001,69.2
9.996,69.2
9.997,65.6
9.998,71.2
9.999,66.2
